Time	 MagX	 MagY	 MagZ	 AccelX	 AccelY	 AccelZ	 Yaw	 Pitch	 Roll	 Temperature	 Pressure	 Altitude
14322	  0.179	 -0.216	  0.453	  0.198	  0.121	 -9.726	  0.008	 -0.004	  0.003	 32.200	 98.753	 -99999.000
14372	  0.180	 -0.219	  0.452	  0.173	  0.050	 -9.772	  0.015	 -0.001	  0.005	 32.100	 98.749	 -99999.000
14422	  0.183	 -0.216	  0.448	  0.210	 -0.008	 -9.807	 -0.005	  0.010	  0.005	 32.200	 98.753	 -99999.000
14472	  0.182	 -0.223	  0.450	  0.214	  0.050	 -9.803	 -0.015	  0.006	  0.005	 32.100	 98.760	 -99999.000
14522	  0.180	 -0.226	  0.451	  0.226	  0.095	 -9.756	 -0.012	  0.000	  0.004	 32.200	 98.753	 -99999.000
14572	  0.180	 -0.226	  0.448	  0.195	  0.078	 -9.769	  0.007	 -0.007	  0.004	 32.100	 98.749	 -99999.000
14622	  0.180	 -0.224	  0.450	  0.176	  0.052	 -9.783	  0.004	  0.003	  0.004	 32.200	 98.764	 -99999.000
14672	  0.183	 -0.218	  0.449	  0.222	  0.027	 -9.789	 -0.011	  0.011	  0.003	 32.200	 98.753	 -99999.000
14722	  0.179	 -0.225	  0.451	  0.196	  0.082	 -9.839	 -0.014	  0.006	  0.003	 32.200	 98.753	 -99999.000
14772	  0.181	 -0.219	  0.451	  0.215	  0.096	 -9.770	 -0.004	 -0.003	  0.003	 32.200	 98.753	 -99999.000
14822	  0.179	 -0.228	  0.453	  0.180	  0.055	 -9.749	  0.011	 -0.006	  0.002	 32.200	 98.753	 -99999.000
14872	  0.181	 -0.219	  0.451	  0.184	  0.012	 -9.767	 -0.003	  0.007	  0.003	 32.200	 98.764	 -99999.000
14922	  0.182	 -0.224	  0.451	  0.215	  0.057	 -9.756	 -0.017	  0.015	  0.003	 32.200	 98.742	 -99999.000
14972	  0.180	 -0.221	  0.445	  0.270	  0.090	 -9.664	 -0.011	  0.003	  0.001	 32.200	 98.753	 -99999.000
15022	  0.180	 -0.219	  0.451	  0.227	  0.078	 -9.772	  0.006	 -0.010	  0.004	 32.200	 98.753	 -99999.000
15072	  0.182	 -0.221	  0.448	  0.197	 -0.012	 -9.795	  0.006	 -0.005	  0.004	 32.200	 98.753	 -99999.000
15122	  0.183	 -0.224	  0.447	  0.158	  0.030	 -9.825	 -0.011	  0.012	  0.005	 32.100	 98.749	 -99999.000
15172	  0.181	 -0.224	  0.450	  0.236	  0.065	 -9.755	 -0.013	  0.016	  0.005	 32.200	 98.753	 -99999.000
15222	  0.180	 -0.229	  0.451	  0.235	  0.124	 -9.755	 -0.004	 -0.000	  0.004	 32.200	 98.738	 -99999.000
15272	  0.183	 -0.216	  0.450	  0.184	  0.092	 -9.718	  0.007	 -0.008	  0.005	 32.200	 98.753	 -99999.000
15322	  0.181	 -0.225	  0.452	  0.164	  0.004	 -9.839	 -0.003	 -0.004	  0.003	 32.200	 98.742	 -99999.000
15372	  0.179	 -0.225	  0.450	  0.187	  0.053	 -9.797	 -0.013	  0.014	  0.002	 32.100	 98.738	 -99999.000
15422	  0.181	 -0.222	  0.448	  0.221	  0.070	 -9.776	 -0.006	  0.009	  0.002	 32.200	 98.753	 -99999.000
15472	  0.179	 -0.225	  0.445	  0.221	  0.055	 -9.740	 -0.001	 -0.000	  0.003	 32.200	 98.764	 -99999.000
15522	  0.180	 -0.226	  0.448	  0.205	  0.051	 -9.769	  0.003	 -0.008	  0.004	 32.200	 98.760	 -99999.000
15572	  0.181	 -0.223	  0.449	  0.186	  0.042	 -9.778	 -0.006	  0.004	  0.004	 32.200	 98.753	 -99999.000
15622	  0.183	 -0.222	  0.442	  0.210	  0.043	 -9.764	 -0.009	  0.009	  0.004	 32.200	 98.764	 -99999.000
15672	  0.182	 -0.225	  0.452	  0.224	  0.075	 -9.785	 -0.007	  0.009	  0.004	 32.200	 98.742	 -99999.000
15722	  0.181	 -0.221	  0.448	  0.242	  0.090	 -9.756	  0.001	 -0.001	  0.003	 32.200	 98.753	 -99999.000
15772	  0.183	 -0.227	  0.450	  0.170	  0.029	 -9.790	  0.004	 -0.006	  0.005	 32.200	 98.753	 -99999.000
15822	  0.182	 -0.228	  0.449	  0.188	  0.042	 -9.778	 -0.011	  0.004	  0.004	 32.200	 98.749	 -99999.000
15872	  0.178	 -0.227	  0.452	  0.208	  0.064	 -9.748	 -0.010	  0.011	  0.003	 32.200	 98.753	 -99999.000
15922	  0.181	 -0.224	  0.448	  0.222	  0.084	 -9.701	 -0.005	  0.008	  0.004	 32.200	 98.753	 -99999.000
15972	  0.181	 -0.217	  0.450	  0.222	  0.075	 -9.792	  0.006	 -0.005	  0.004	 32.200	 98.742	 -99999.000
16022	  0.183	 -0.224	  0.449	  0.181	  0.035	 -9.808	 -0.002	 -0.004	  0.003	 32.200	 98.764	 -99999.000
16072	  0.182	 -0.226	  0.449	  0.202	  0.050	 -9.762	 -0.011	  0.008	  0.005	 32.200	 98.753	 -99999.000
16122	  0.182	 -0.229	  0.450	  0.226	  0.078	 -9.781	 -0.007	  0.006	  0.003	 32.200	 98.757	 -99999.000
16172	  0.181	 -0.223	  0.449	  0.233	  0.086	 -9.781	 -0.000	  0.006	  0.004	 32.200	 98.753	 -99999.000
16222	  0.182	 -0.226	  0.450	  0.217	  0.029	 -9.752	  0.004	 -0.004	  0.005	 32.200	 98.742	 -99999.000
16272	  0.183	 -0.221	  0.447	  0.175	  0.038	 -9.775	 -0.008	  0.003	  0.004	 32.200	 98.753	 -99999.000
16322	  0.178	 -0.225	  0.454	  0.218	  0.091	 -9.737	 -0.012	  0.004	  0.003	 32.200	 98.753	 -99999.000
16372	  0.181	 -0.226	  0.448	  0.191	  0.092	 -9.757	 -0.004	  0.006	  0.005	 32.200	 98.742	 -99999.000
16422	  0.181	 -0.226	  0.448	  0.236	  0.069	 -9.771	  0.004	  0.000	  0.003	 32.200	 98.764	 -99999.000
16472	  0.182	 -0.223	  0.449	  0.217	  0.063	 -9.811	 -0.002	  0.002	  0.004	 32.200	 98.764	 -99999.000
16522	  0.182	 -0.229	  0.455	  0.214	  0.048	 -9.754	 -0.008	  0.003	  0.005	 32.200	 98.742	 -99999.000
16572	  0.181	 -0.216	  0.452	  0.206	  0.074	 -9.784	 -0.010	  0.002	  0.003	 32.200	 98.753	 -99999.000
16622	  0.180	 -0.223	  0.451	  0.213	  0.098	 -9.749	  0.001	  0.003	  0.004	 32.200	 98.753	 -99999.000
16672	  0.181	 -0.219	  0.450	  0.234	  0.078	 -9.770	 -0.000	  0.001	  0.004	 32.200	 98.753	 -99999.000
16722	  0.183	 -0.226	  0.452	  0.184	  0.056	 -9.769	 -0.003	  0.002	  0.004	 32.200	 98.742	 -99999.000
16772	  0.180	 -0.224	  0.452	  0.225	  0.055	 -9.763	 -0.009	  0.004	  0.004	 32.200	 98.753	 -99999.000
16823	  0.181	 -0.213	  0.449	  0.214	  0.093	 -9.788	 -0.006	  0.004	  0.003	 32.200	 98.753	 -99999.000
16872	  0.180	 -0.223	  0.451	  0.198	  0.094	 -9.793	 -0.000	  0.001	  0.004	 32.200	 98.753	 -99999.000
16922	  0.179	 -0.220	  0.446	  0.189	  0.071	 -9.814	  0.002	  0.004	  0.004	 32.200	 98.742	 -99999.000
16972	  0.181	 -0.224	  0.450	  0.202	  0.039	 -9.759	 -0.006	  0.002	  0.004	 32.200	 98.764	 -99999.000
17022	  0.179	 -0.225	  0.448	  0.222	  0.079	 -9.785	 -0.010	  0.004	  0.003	 32.200	 98.742	 -99999.000
17072	  0.180	 -0.217	  0.448	  0.225	  0.057	 -9.734	 -0.005	  0.001	  0.003	 32.200	 98.742	 -99999.000
17121	  0.179	 -0.223	  0.450	  0.217	  0.056	 -9.766	  0.004	  0.002	  0.005	 32.200	 98.753	 -99999.000
17171	  0.180	 -0.223	  0.444	  0.227	  0.023	 -9.741	 -0.001	  0.001	  0.005	 32.200	 98.753	 -99999.000
17221	  0.182	 -0.224	  0.450	  0.218	  0.044	 -9.792	 -0.010	  0.004	  0.004	 32.200	 98.742	 -99999.000
17272	  0.179	 -0.223	  0.451	  0.209	  0.092	 -9.743	 -0.009	  0.003	  0.004	 32.200	 98.753	 -99999.000
18323	  0.180	 -0.224	  0.453	  0.227	  0.071	 -9.724	 -0.001	  0.000	  0.004	 32.200	 98.753	 -99999.000
18373	  0.179	 -0.221	  0.446	  0.188	  0.053	 -9.781	 -0.006	  0.001	  0.004	 32.200	 98.742	 -99999.000
18422	  0.181	 -0.222	  0.453	  0.208	  0.077	 -9.752	 -0.012	  0.003	  0.004	 32.200	 98.753	 -99999.000
18472	  0.179	 -0.223	  0.453	  0.197	  0.102	 -9.759	 -0.001	  0.004	  0.004	 32.200	 98.742	 -99999.000
18522	  0.181	 -0.223	  0.448	  0.213	  0.067	 -9.781	 -0.001	  0.003	  0.005	 32.200	 98.742	 -99999.000
18572	  0.181	 -0.223	  0.454	  0.206	  0.055	 -9.751	 -0.004	  0.001	  0.005	 32.200	 98.742	 -99999.000
18622	  0.180	 -0.225	  0.451	  0.210	  0.079	 -9.765	 -0.010	  0.003	  0.005	 32.200	 98.742	 -99999.000
18672	  0.179	 -0.224	  0.452	  0.232	  0.069	 -9.718	 -0.003	  0.004	  0.003	 32.200	 98.753	 -99999.000
18722	  0.178	 -0.223	  0.452	  0.197	  0.098	 -9.768	 -0.003	  0.001	  0.005	 32.200	 98.742	 -99999.000
18772	  0.182	 -0.221	  0.451	  0.216	  0.056	 -9.796	 -0.004	  0.003	  0.003	 32.200	 98.753	 -99999.000
18822	  0.178	 -0.219	  0.451	  0.224	  0.071	 -9.781	 -0.004	  0.004	  0.003	 32.200	 98.753	 -99999.000
18872	  0.180	 -0.222	  0.450	  0.215	  0.072	 -9.770	 -0.005	  0.003	  0.003	 32.200	 98.764	 -99999.000
18922	  0.180	 -0.224	  0.449	  0.213	  0.069	 -9.759	 -0.004	  0.002	  0.003	 32.200	 98.749	 -99999.000
18972	  0.181	 -0.223	  0.449	  0.212	  0.091	 -9.712	 -0.004	  0.002	  0.004	 32.200	 98.753	 -99999.000
19022	  0.180	 -0.221	  0.449	  0.217	  0.060	 -9.792	 -0.003	  0.005	  0.005	 32.200	 98.753	 -99999.000
19072	  0.180	 -0.222	  0.451	  0.204	  0.056	 -9.764	 -0.003	  0.003	  0.004	 32.200	 98.742	 -99999.000
19122	  0.181	 -0.221	  0.447	  0.208	  0.068	 -9.783	 -0.006	  0.002	  0.005	 32.200	 98.753	 -99999.000
19172	  0.179	 -0.226	  0.451	  0.222	  0.071	 -9.794	 -0.002	  0.001	  0.004	 32.200	 98.753	 -99999.000
19222	  0.177	 -0.220	  0.452	  0.208	  0.074	 -9.772	 -0.005	  0.004	  0.005	 32.200	 98.742	 -99999.000
19272	  0.181	 -0.224	  0.449	  0.226	  0.076	 -9.754	 -0.004	  0.001	  0.003	 32.200	 98.757	 -99999.000
19322	  0.181	 -0.217	  0.451	  0.194	  0.056	 -9.769	 -0.006	  0.002	  0.003	 32.200	 98.753	 -99999.000
19372	  0.179	 -0.217	  0.452	  0.244	  0.065	 -9.741	 -0.004	  0.003	  0.003	 32.200	 98.742	 -99999.000
19422	  0.179	 -0.222	  0.449	  0.207	  0.059	 -9.769	 -0.004	  0.002	  0.003	 32.200	 98.753	 -99999.000
19472	  0.182	 -0.223	  0.451	  0.218	  0.044	 -9.790	 -0.002	  0.002	  0.004	 32.200	 98.742	 -99999.000
19522	  0.182	 -0.221	  0.449	  0.195	  0.059	 -9.819	 -0.005	  0.001	  0.003	 32.200	 98.742	 -99999.000
19572	  0.178	 -0.223	  0.443	  0.204	  0.077	 -9.764	 -0.007	  0.004	  0.004	 32.200	 98.753	 -99999.000
19622	  0.178	 -0.222	  0.453	  0.231	  0.053	 -9.799	 -0.001	  0.002	  0.003	 32.200	 98.753	 -99999.000
19672	  0.179	 -0.222	  0.452	  0.186	  0.083	 -9.770	 -0.004	  0.001	  0.005	 32.200	 98.753	 -99999.000
19722	  0.179	 -0.219	  0.449	  0.203	  0.058	 -9.736	 -0.004	  0.001	  0.004	 32.200	 98.753	 -99999.000
19772	  0.179	 -0.223	  0.453	  0.211	  0.060	 -9.777	 -0.006	  0.002	  0.004	 32.200	 98.742	 -99999.000
19822	  0.180	 -0.224	  0.451	  0.227	  0.064	 -9.767	 -0.004	  0.005	  0.003	 32.200	 98.753	 -99999.000
19872	  0.180	 -0.224	  0.451	  0.213	  0.075	 -9.776	 -0.002	 -0.001	  0.004	 32.200	 98.753	 -99999.000
19922	  0.181	 -0.223	  0.451	  0.205	  0.051	 -9.775	 -0.002	  0.004	  0.005	 32.200	 98.764	 -99999.000
19972	  0.179	 -0.219	  0.450	  0.216	  0.052	 -9.770	 -0.005	 -0.002	  0.004	 32.200	 98.753	 -99999.000
20022	  0.179	 -0.217	  0.452	  0.207	  0.067	 -9.797	 -0.006	  0.005	  0.003	 32.200	 98.742	 -99999.000
20072	  0.181	 -0.225	  0.448	  0.222	  0.071	 -9.781	 -0.006	  0.003	  0.004	 32.200	 98.753	 -99999.000
20122	  0.182	 -0.220	  0.444	  0.203	  0.051	 -9.759	 -0.002	  0.002	  0.004	 32.200	 98.753	 -99999.000
20172	  0.180	 -0.225	  0.451	  0.187	  0.077	 -9.772	 -0.006	  0.003	  0.004	 32.200	 98.753	 -99999.000
20222	  0.179	 -0.225	  0.449	  0.221	  0.080	 -9.746	 -0.001	 -0.000	  0.003	 32.200	 98.753	 -99999.000
20272	  0.181	 -0.216	  0.450	  0.192	  0.060	 -9.806	 -0.006	  0.003	  0.003	 32.200	 98.753	 -99999.000
20322	  0.178	 -0.217	  0.451	  0.243	  0.089	 -9.729	 -0.006	  0.006	  0.003	 32.200	 98.753	 -99999.000
20372	  0.179	 -0.224	  0.451	  0.192	  0.085	 -9.727	 -0.002	  0.001	  0.004	 32.200	 98.742	 -99999.000
20422	  0.182	 -0.221	  0.450	  0.203	  0.084	 -9.754	 -0.005	  0.000	  0.005	 32.200	 98.742	 -99999.000
20472	  0.181	 -0.224	  0.454	  0.207	  0.060	 -9.796	 -0.004	  0.005	  0.003	 32.200	 98.753	 -99999.000
20522	  0.180	 -0.225	  0.450	  0.214	  0.079	 -9.791	 -0.006	  0.003	  0.004	 32.200	 98.764	 -99999.000
20572	  0.177	 -0.224	  0.452	  0.183	  0.051	 -9.797	 -0.002	  0.003	  0.003	 32.200	 98.753	 -99999.000
20622	  0.181	 -0.214	  0.448	  0.227	  0.068	 -9.726	 -0.003	  0.004	  0.003	 32.200	 98.753	 -99999.000
20672	  0.179	 -0.221	  0.448	  0.224	  0.054	 -9.792	 -0.003	  0.002	  0.003	 32.200	 98.742	 -99999.000
20722	  0.178	 -0.224	  0.446	  0.189	  0.080	 -9.731	 -0.009	  0.001	  0.003	 32.200	 98.753	 -99999.000
20772	  0.179	 -0.221	  0.444	  0.194	  0.051	 -9.744	 -0.003	  0.005	  0.003	 32.200	 98.742	 -99999.000
20822	  0.179	 -0.223	  0.444	  0.198	  0.073	 -9.788	 -0.002	  0.004	  0.005	 32.200	 98.742	 -99999.000
20872	  0.177	 -0.218	  0.450	  0.217	  0.063	 -9.726	 -0.004	  0.005	  0.004	 32.200	 98.753	 -99999.000
20922	  0.180	 -0.224	  0.452	  0.199	  0.061	 -9.761	 -0.005	  0.001	  0.005	 32.200	 98.753	 -99999.000
20972	  0.180	 -0.225	  0.447	  0.215	  0.064	 -9.764	 -0.008	  0.003	  0.005	 32.200	 98.753	 -99999.000
21022	  0.179	 -0.214	  0.451	  0.181	  0.081	 -9.797	 -0.004	 -0.001	  0.003	 32.200	 98.764	 -99999.000
21072	  0.180	 -0.212	  0.452	  0.184	  0.044	 -9.747	 -0.001	  0.005	  0.004	 32.200	 98.753	 -99999.000
21122	  0.179	 -0.216	  0.450	  0.219	  0.043	 -9.803	 -0.002	  0.005	  0.003	 32.200	 98.742	 -99999.000
21172	  0.178	 -0.223	  0.447	  0.209	  0.050	 -9.744	 -0.007	  0.005	  0.003	 32.200	 98.753	 -99999.000
21222	  0.180	 -0.219	  0.448	  0.234	  0.070	 -9.738	 -0.009	 -0.001	  0.004	 32.200	 98.753	 -99999.000
21272	  0.179	 -0.223	  0.451	  0.216	  0.073	 -9.755	 -0.004	  0.000	  0.005	 32.200	 98.742	 -99999.000
27248	  0.179	 -0.222	  0.449	  0.167	  0.076	 -9.764	  0.001	  0.003	  0.002	 32.200	 98.753	 -0.267
27297	  0.181	 -0.222	  0.449	  0.199	  0.051	 -9.769	 -0.000	  0.003	  0.003	 32.200	 98.753	 -0.267
27347	  0.183	 -0.227	  0.452	  0.165	  0.076	 -9.736	 -0.013	 -0.001	  0.004	 32.200	 98.753	 -0.267
27398	  0.180	 -0.227	  0.450	  0.211	  0.082	 -9.783	 -0.009	 -0.000	  0.003	 32.200	 98.753	 -0.267
27447	  0.184	 -0.228	  0.447	  0.210	  0.059	 -9.794	 -0.001	  0.006	  0.001	 32.200	 98.742	  0.732
27498	  0.182	 -0.217	  0.448	  0.203	  0.045	 -9.769	  0.002	  0.005	  0.000	 32.200	 98.757	 -0.631
27547	  0.183	 -0.220	  0.453	  0.210	  0.011	 -9.786	 -0.003	  0.005	  0.002	 32.200	 98.742	  0.732
27597	  0.181	 -0.224	  0.450	  0.219	  0.048	 -9.748	 -0.012	  0.003	  0.004	 32.200	 98.753	 -0.267
27647	  0.180	 -0.226	  0.451	  0.220	  0.061	 -9.754	 -0.005	 -0.007	  0.003	 32.200	 98.768	 -1.630
27697	  0.180	 -0.222	  0.447	  0.192	  0.068	 -9.791	  0.000	  0.002	  0.004	 32.200	 98.764	 -1.267
27747	  0.181	 -0.224	  0.452	  0.198	  0.057	 -9.705	 -0.002	  0.013	  0.006	 32.200	 98.753	 -0.267
27797	  0.181	 -0.222	  0.447	  0.210	  0.060	 -9.752	 -0.005	  0.007	  0.008	 32.200	 98.753	 -0.267
27847	  0.183	 -0.222	  0.449	  0.251	  0.054	 -9.767	 -0.007	 -0.003	  0.005	 32.200	 98.742	  0.732
27898	  0.181	 -0.221	  0.448	  0.221	  0.055	 -9.811	 -0.010	 -0.011	  0.003	 32.200	 98.753	 -0.267
27948	  0.181	 -0.222	  0.449	  0.149	  0.061	 -9.754	 -0.001	  0.001	  0.003	 32.200	 98.753	 -0.267
27998	  0.180	 -0.223	  0.449	  0.167	  0.072	 -9.773	  0.001	  0.019	  0.004	 32.200	 98.753	 -0.267
28048	  0.180	 -0.224	  0.448	  0.243	  0.060	 -9.725	 -0.002	  0.009	  0.004	 32.200	 98.753	 -0.267
28098	  0.182	 -0.228	  0.454	  0.235	  0.033	 -9.771	 -0.006	 -0.009	  0.003	 32.200	 98.757	 -0.631
28148	  0.182	 -0.217	  0.449	  0.215	  0.059	 -9.762	 -0.010	 -0.008	  0.002	 32.200	 98.753	 -0.267
28198	  0.180	 -0.224	  0.454	  0.187	  0.086	 -9.797	 -0.002	  0.006	  0.004	 32.200	 98.757	 -0.631
28248	  0.179	 -0.223	  0.449	  0.242	  0.062	 -9.782	  0.001	  0.017	  0.003	 32.200	 98.757	 -0.631
28298	  0.183	 -0.222	  0.447	  0.240	  0.050	 -9.755	  0.001	  0.009	  0.002	 32.200	 98.764	 -1.267
28348	  0.183	 -0.219	  0.448	  0.233	  0.056	 -9.762	 -0.012	 -0.009	  0.004	 32.200	 98.742	  0.732
28398	  0.179	 -0.226	  0.450	  0.214	  0.069	 -9.766	 -0.009	 -0.004	  0.003	 32.200	 98.742	  0.732
28448	  0.183	 -0.225	  0.448	  0.196	  0.084	 -9.778	 -0.004	  0.003	  0.006	 32.200	 98.757	 -0.631
28498	  0.182	 -0.225	  0.451	  0.235	  0.052	 -9.745	  0.000	  0.012	  0.003	 32.200	 98.757	 -0.631
28548	  0.182	 -0.215	  0.450	  0.252	  0.038	 -9.827	 -0.002	  0.003	  0.004	 32.200	 98.753	 -0.267
28598	  0.183	 -0.218	  0.451	  0.225	  0.041	 -9.798	 -0.008	 -0.006	  0.002	 32.200	 98.753	 -0.267
28648	  0.182	 -0.226	  0.449	  0.168	  0.100	 -9.769	 -0.010	 -0.009	  0.004	 32.200	 98.768	 -1.630
28698	  0.182	 -0.224	  0.451	  0.153	  0.098	 -9.754	 -0.004	  0.001	  0.002	 32.200	 98.753	 -0.267
28748	  0.180	 -0.229	  0.450	  0.179	  0.093	 -9.768	 -0.002	  0.011	  0.005	 32.200	 98.753	 -0.267
28798	  0.180	 -0.217	  0.446	  0.234	  0.054	 -9.729	 -0.000	  0.010	  0.002	 32.200	 98.764	 -1.267
28848	  0.183	 -0.223	  0.450	  0.237	  0.038	 -9.783	 -0.009	 -0.003	  0.003	 32.200	 98.757	 -0.631
28898	  0.181	 -0.225	  0.448	  0.209	  0.074	 -9.783	 -0.011	 -0.005	  0.005	 32.200	 98.757	 -0.631
28948	  0.180	 -0.226	  0.449	  0.194	  0.067	 -9.767	  0.002	  0.008	  0.006	 32.200	 98.742	  0.732
28998	  0.181	 -0.225	  0.443	  0.229	  0.038	 -9.769	  0.001	  0.008	  0.004	 32.200	 98.742	  0.732
29048	  0.181	 -0.222	  0.452	  0.247	  0.026	 -9.796	 -0.007	  0.004	  0.005	 32.200	 98.742	  0.732
29098	  0.183	 -0.223	  0.450	  0.223	  0.050	 -9.762	 -0.010	 -0.000	  0.005	 32.200	 98.753	 -0.267
29148	  0.181	 -0.222	  0.448	  0.222	  0.056	 -9.795	 -0.004	 -0.003	  0.005	 32.200	 98.753	 -0.267
29198	  0.184	 -0.225	  0.450	  0.182	  0.095	 -9.770	 -0.002	  0.001	  0.004	 32.200	 98.753	 -0.267
29248	  0.180	 -0.219	  0.445	  0.176	  0.072	 -9.761	 -0.003	  0.009	  0.006	 32.200	 98.753	 -0.267
29298	  0.180	 -0.228	  0.451	  0.213	  0.059	 -9.782	 -0.003	  0.005	  0.005	 32.200	 98.768	 -1.630
29348	  0.180	 -0.223	  0.449	  0.227	  0.062	 -9.793	 -0.010	 -0.002	  0.003	 32.200	 98.742	  0.732
29398	  0.182	 -0.226	  0.449	  0.171	  0.084	 -9.755	 -0.004	 -0.001	  0.003	 32.200	 98.753	 -0.267
29448	  0.183	 -0.215	  0.449	  0.177	  0.070	 -9.719	 -0.003	 -0.000	  0.004	 32.200	 98.764	 -1.267
29498	  0.181	 -0.226	  0.450	  0.211	  0.058	 -9.746	 -0.002	  0.007	  0.004	 32.200	 98.753	 -0.267
29548	  0.185	 -0.224	  0.450	  0.238	  0.049	 -9.783	 -0.006	  0.011	  0.003	 32.200	 98.764	 -1.267
29598	  0.182	 -0.222	  0.452	  0.255	  0.066	 -9.755	 -0.005	  0.001	  0.006	 32.200	 98.753	 -0.267
29648	  0.183	 -0.220	  0.455	  0.178	  0.057	 -9.777	 -0.005	 -0.005	  0.005	 32.200	 98.753	 -0.267
29698	  0.181	 -0.220	  0.450	  0.155	  0.071	 -9.802	 -0.005	  0.001	  0.004	 32.200	 98.764	 -1.267
29748	  0.182	 -0.228	  0.452	  0.194	  0.067	 -9.782	 -0.004	  0.010	  0.003	 32.200	 98.753	 -0.267
29798	  0.178	 -0.223	  0.447	  0.208	  0.064	 -9.794	 -0.004	  0.009	  0.004	 32.200	 98.753	 -0.267
29848	  0.179	 -0.226	  0.451	  0.232	  0.074	 -9.765	 -0.004	 -0.002	  0.004	 32.200	 98.753	 -0.267
29898	  0.182	 -0.226	  0.449	  0.107	 -0.142	 -9.810	 -0.056	  0.056	  0.012	 32.200	 98.753	 -0.267
29948	  0.180	 -0.227	  0.449	  0.393	  0.307	 -9.646	 -0.053	  0.068	  0.013	 32.200	 98.764	 -1.267
29998	  0.179	 -0.226	  0.448	  0.101	  0.331	 -9.763	  0.044	 -0.005	  0.006	 32.200	 98.742	  0.732
30048	  0.180	 -0.221	  0.444	  0.239	  0.058	 -9.784	  0.021	 -0.009	 -0.009	 32.200	 98.753	 -0.267
30098	  0.180	 -0.223	  0.448	  0.420	  0.249	 -9.682	  0.028	 -0.078	 -0.012	 32.200	 98.753	 -0.267
30148	  0.184	 -0.218	  0.450	  0.170	 -0.385	 -9.879	  0.108	 -0.004	 -0.012	 32.200	 98.753	 -0.267
30198	  0.183	 -0.216	  0.450	  0.353	 -1.026	 -10.091	 -0.256	  0.098	 -0.168	 32.200	 98.742	  0.732
30248	  0.179	 -0.226	  0.452	  0.517	  0.952	 -9.422	 -0.121	  0.123	 -0.127	 32.200	 98.753	 -0.267
30298	  0.179	 -0.230	  0.451	  0.802	  0.704	 -9.416	  0.150	 -0.006	 -0.222	 32.200	 98.757	 -0.631
30348	  0.184	 -0.215	  0.448	  0.159	 -0.149	 -9.525	  0.292	 -0.070	 -0.286	 32.200	 98.757	 -0.631
30398	  0.185	 -0.216	  0.452	 -0.338	 -0.286	 -9.959	  0.015	 -0.044	 -0.104	 32.200	 98.764	 -1.267
30448	  0.187	 -0.211	  0.455	  0.289	 -0.299	 -9.880	 -0.116	  0.044	  0.010	 32.200	 98.768	 -1.630
30498	  0.188	 -0.218	  0.454	  0.547	  0.441	 -9.633	 -0.076	 -0.027	  0.011	 32.200	 98.753	 -0.267
30548	  0.187	 -0.217	  0.451	  0.152	  0.104	 -9.797	  0.043	 -0.084	  0.004	 32.200	 98.730	  1.821
30598	  0.190	 -0.217	  0.456	  0.139	 -0.125	 -9.821	  0.003	 -0.015	 -0.001	 32.200	 98.764	 -1.267
30648	  0.191	 -0.205	  0.457	  0.306	 -0.014	 -9.755	 -0.079	 -0.009	  0.002	 32.200	 98.753	 -0.267
30698	  0.189	 -0.217	  0.453	  0.110	  0.546	 -9.580	  0.017	  0.016	  0.002	 32.200	 98.753	 -0.267
30748	  0.191	 -0.218	  0.449	  0.324	 -0.280	 -9.862	  0.102	  0.037	 -0.077	 32.200	 98.757	 -0.631
30798	  0.191	 -0.209	  0.455	  0.209	  0.049	 -9.830	  0.050	  0.090	  0.032	 32.200	 98.753	 -0.267
30848	  0.186	 -0.211	  0.452	  0.640	 -0.453	 -9.861	  0.015	 -0.015	 -0.009	 32.200	 98.742	  0.732
30898	  0.188	 -0.213	  0.452	  0.250	 -0.024	 -9.716	 -0.120	 -0.047	  0.004	 32.200	 98.753	 -0.267
30948	  0.189	 -0.208	  0.456	  0.104	  0.084	 -9.882	 -0.097	 -0.004	  0.003	 32.200	 98.768	 -1.630
30998	  0.191	 -0.215	  0.456	  0.318	  0.375	 -9.624	 -0.018	  0.012	 -0.005	 32.200	 98.753	 -0.267
31047	  0.188	 -0.217	  0.454	  0.214	  0.218	 -9.740	  0.068	 -0.025	 -0.049	 32.200	 98.757	 -0.631
31097	  0.191	 -0.215	  0.450	  0.026	 -0.058	 -9.822	  0.040	 -0.001	 -0.002	 32.200	 98.753	 -0.267
31147	  0.191	 -0.216	  0.457	  0.203	 -0.125	 -9.856	 -0.047	  0.030	  0.008	 32.200	 98.753	 -0.267
31197	  0.188	 -0.214	  0.455	  0.492	  0.255	 -9.644	 -0.026	  0.057	 -0.008	 32.200	 98.757	 -0.631
31247	  0.191	 -0.213	  0.457	 -0.121	  0.040	 -9.852	  0.006	 -0.045	  0.000	 32.200	 98.753	 -0.267
31297	  0.189	 -0.214	  0.451	  0.439	  0.161	 -9.726	  0.002	 -0.007	  0.001	 32.200	 98.753	 -0.267
31347	  0.191	 -0.212	  0.451	  0.086	  0.132	 -9.656	  0.006	 -0.033	  0.009	 32.200	 98.753	 -0.267
31397	  0.192	 -0.214	  0.455	  0.201	  0.141	 -9.720	  0.032	 -0.053	 -0.005	 32.200	 98.753	 -0.267
31447	  0.191	 -0.212	  0.449	  0.152	 -0.079	 -9.831	 -0.009	  0.033	  0.009	 32.200	 98.753	 -0.267
31497	  0.190	 -0.216	  0.456	  0.281	  0.021	 -9.762	 -0.002	  0.009	  0.006	 32.200	 98.753	 -0.267
31547	  0.190	 -0.212	  0.454	  0.261	 -0.125	 -9.832	 -0.058	 -0.019	 -0.008	 32.200	 98.753	 -0.267
31597	  0.191	 -0.212	  0.454	  0.217	  0.246	 -9.716	 -0.039	 -0.012	 -0.002	 32.200	 98.753	 -0.267
31647	  0.194	 -0.217	  0.454	  0.277	  0.250	 -9.660	  0.014	 -0.006	 -0.007	 32.200	 98.753	 -0.267
31697	  0.191	 -0.215	  0.456	  0.041	  0.008	 -9.861	  0.069	 -0.022	  0.007	 32.200	 98.742	  0.732
31747	  0.193	 -0.209	  0.456	  0.121	 -0.011	 -9.780	  0.001	  0.012	  0.002	 32.200	 98.753	 -0.267
31797	  0.192	 -0.211	  0.455	  0.201	 -0.043	 -9.828	 -0.017	  0.024	 -0.001	 32.200	 98.753	 -0.267
31847	  0.190	 -0.218	  0.456	  0.315	 -0.046	 -9.763	 -0.033	  0.018	 -0.031	 32.200	 98.757	 -0.631
31897	  0.190	 -0.215	  0.446	  0.361	  0.093	 -9.767	 -0.032	  0.010	 -0.057	 32.200	 98.753	 -0.267
31947	  0.191	 -0.217	  0.454	  0.148	  0.127	 -9.775	 -0.040	 -0.029	 -0.081	 32.200	 98.742	  0.732
31997	  0.191	 -0.214	  0.448	  0.103	  0.122	 -9.774	 -0.055	 -0.017	 -0.029	 32.200	 98.746	  0.368
32047	  0.192	 -0.214	  0.456	  0.156	  0.173	 -9.685	 -0.021	 -0.025	  0.001	 32.200	 98.753	 -0.267
32097	  0.196	 -0.210	  0.454	  0.179	  0.087	 -9.767	 -0.013	 -0.015	  0.001	 32.200	 98.753	 -0.267
32147	  0.196	 -0.214	  0.455	  0.219	  0.138	 -9.774	 -0.017	 -0.004	  0.003	 32.200	 98.742	  0.732
32197	  0.192	 -0.213	  0.454	  0.059	  0.184	 -9.809	  0.000	  0.004	 -0.015	 32.200	 98.753	 -0.267
32247	  0.196	 -0.215	  0.458	  0.248	  0.148	 -9.674	 -0.012	  0.004	 -0.036	 32.200	 98.757	 -0.631
32297	  0.194	 -0.216	  0.453	  0.034	  0.481	 -9.605	  0.025	  0.002	  0.013	 32.200	 98.757	 -0.631
32347	  0.193	 -0.211	  0.455	  0.110	  0.031	 -9.826	  0.120	  0.022	  0.006	 32.200	 98.742	  0.732
32397	  0.193	 -0.207	  0.454	  0.245	 -0.097	 -9.797	  0.040	  0.027	  0.011	 32.200	 98.768	 -1.630
32447	  0.195	 -0.215	  0.452	  0.174	 -0.235	 -9.893	 -0.035	  0.002	 -0.003	 32.200	 98.757	 -0.631
32497	  0.193	 -0.214	  0.456	  0.195	  0.191	 -9.698	 -0.078	 -0.009	 -0.001	 32.200	 98.757	 -0.631
32547	  0.194	 -0.210	  0.452	  0.261	  0.102	 -9.771	 -0.056	  0.003	 -0.001	 32.200	 98.757	 -0.631
32597	  0.193	 -0.213	  0.453	  0.128	  0.460	 -9.640	  0.015	  0.002	  0.003	 32.200	 98.757	 -0.631
32647	  0.191	 -0.208	  0.454	  2.206	 -2.511	 -9.534	  0.988	  0.066	 -0.079	 32.200	 98.746	  0.368
32697	  0.192	 -0.185	  0.461	  1.403	 -0.533	 -9.183	  0.558	  0.065	 -0.480	 32.200	 98.757	 -0.631
32747	  0.194	 -0.170	  0.459	  0.630	 -2.194	 -10.381	  0.085	 -0.092	 -0.071	 32.200	 98.753	 -0.267
32797	  0.197	 -0.182	  0.455	 -0.037	 -1.110	 -10.194	 -0.325	 -0.145	 -0.034	 32.200	 98.746	  0.368
32847	  0.200	 -0.193	  0.458	 -0.178	 -0.391	 -9.873	 -0.465	 -0.054	  0.287	 32.200	 98.742	  0.732
32897	  0.198	 -0.209	  0.456	  0.195	  0.777	 -8.758	 -0.440	  0.020	  0.247	 32.200	 98.757	 -0.631
32947	  0.198	 -0.201	  0.456	  0.180	  0.919	 -9.508	  0.032	  0.039	 -0.006	 32.200	 98.753	 -0.267
32997	  0.198	 -0.206	  0.455	  0.256	  0.043	 -9.704	  0.186	 -0.055	  0.010	 32.200	 98.742	  0.732
33047	  0.198	 -0.202	  0.455	  0.068	 -0.461	 -9.942	  0.149	 -0.058	  0.007	 32.200	 98.753	 -0.267
33097	  0.198	 -0.204	  0.452	 -0.068	 -0.564	 -9.991	 -0.026	 -0.001	  0.021	 32.200	 98.742	  0.732
33147	  0.197	 -0.208	  0.455	  0.224	 -0.947	 -10.013	 -0.276	  0.050	  0.019	 32.200	 98.753	 -0.267
33198	  0.195	 -0.216	  0.455	  0.225	  0.816	 -9.483	 -0.280	  0.036	  0.012	 32.200	 98.742	  0.732
33247	  0.195	 -0.220	  0.456	  0.114	  0.751	 -9.527	  0.119	  0.028	 -0.005	 32.200	 98.757	 -0.631
33298	  0.194	 -0.210	  0.456	  0.116	 -0.234	 -9.862	  0.215	  0.093	  0.001	 32.200	 98.757	 -0.631
33347	  0.194	 -0.203	  0.455	  0.453	 -0.744	 -9.951	 -0.007	  0.072	  0.002	 32.200	 98.753	 -0.267
33398	  0.193	 -0.211	  0.454	  0.469	 -0.206	 -9.754	 -0.204	 -0.006	  0.004	 32.200	 98.757	 -0.631
33448	  0.193	 -0.207	  0.455	  0.259	  0.410	 -9.624	 -0.158	 -0.055	  0.004	 32.200	 98.757	 -0.631
33497	  0.195	 -0.215	  0.455	  0.070	  0.640	 -9.619	  0.037	 -0.021	  0.010	 32.200	 98.753	 -0.267
33548	  0.192	 -0.214	  0.454	 -0.003	  0.223	 -9.792	  0.190	  0.058	  0.011	 32.200	 98.757	 -0.631
33598	  0.193	 -0.206	  0.458	  0.311	 -0.411	 -9.916	  0.100	  0.062	  0.008	 32.200	 98.757	 -0.631
33648	  0.194	 -0.209	  0.452	  0.382	 -0.368	 -9.848	 -0.101	 -0.017	 -0.000	 32.200	 98.742	  0.732
33698	  0.193	 -0.210	  0.455	  0.180	  0.126	 -9.768	 -0.154	 -0.063	 -0.001	 32.200	 98.757	 -0.631
33748	  0.193	 -0.211	  0.454	  0.079	  0.410	 -9.670	 -0.054	 -0.024	 -0.006	 32.200	 98.742	  0.732
33798	  0.194	 -0.217	  0.452	  0.116	  0.266	 -9.707	  0.074	  0.037	  0.001	 32.200	 98.753	 -0.267
33848	  0.193	 -0.212	  0.454	  0.309	 -0.093	 -9.767	  0.091	  0.064	  0.006	 32.200	 98.742	  0.732
33898	  0.192	 -0.212	  0.458	  0.423	 -0.282	 -9.803	 -0.007	  0.015	  0.007	 32.200	 98.764	 -1.267
33948	  0.193	 -0.211	  0.457	  0.304	 -0.050	 -9.783	 -0.101	 -0.050	  0.005	 32.200	 98.753	 -0.267
33998	  0.192	 -0.212	  0.455	  0.066	  0.323	 -9.734	 -0.072	 -0.047	  0.005	 32.200	 98.757	 -0.631
34048	  0.197	 -0.213	  0.453	 -0.007	  0.385	 -9.723	  0.041	  0.018	  0.004	 32.200	 98.753	 -0.267
34098	  0.194	 -0.210	  0.449	  0.155	  0.057	 -9.751	  0.098	  0.063	  0.002	 32.200	 98.757	 -0.631
34148	  0.193	 -0.204	  0.457	  0.379	 -0.261	 -9.830	  0.026	  0.032	 -0.000	 32.200	 98.742	  0.732
34198	  0.193	 -0.211	  0.452	  0.404	 -0.175	 -9.799	 -0.083	 -0.034	 -0.001	 32.200	 98.764	 -1.267
34248	  0.193	 -0.215	  0.457	  0.223	  0.162	 -9.760	 -0.091	 -0.058	  0.003	 32.200	 98.757	 -0.631
34298	  0.194	 -0.213	  0.452	  0.037	  0.371	 -9.674	  0.009	 -0.006	  0.009	 32.200	 98.753	 -0.267
34348	  0.193	 -0.214	  0.455	  0.109	  0.168	 -9.781	  0.090	  0.057	  0.009	 32.200	 98.753	 -0.267
34398	  0.191	 -0.208	  0.457	  0.294	 -0.132	 -9.833	  0.052	  0.055	  0.006	 32.200	 98.753	 -0.267
34448	  0.191	 -0.212	  0.458	  0.374	 -0.184	 -9.808	 -0.056	 -0.014	  0.004	 32.200	 98.746	  0.368
34498	  0.192	 -0.212	  0.456	  0.248	  0.119	 -9.734	 -0.097	 -0.062	 -0.001	 32.200	 98.753	 -0.267
34548	  0.194	 -0.208	  0.457	  0.091	  0.258	 -9.692	 -0.028	 -0.026	  0.003	 32.200	 98.742	  0.732
34598	  0.196	 -0.211	  0.458	  0.068	  0.049	 -9.746	 -0.005	  0.028	  0.002	 32.200	 98.746	  0.368
34648	  0.192	 -0.211	  0.450	  0.428	  0.003	 -9.735	  0.046	  0.063	  0.003	 32.200	 98.746	  0.368
34698	  0.192	 -0.216	  0.458	  0.132	  0.164	 -9.749	  0.042	  0.019	  0.020	 32.200	 98.757	 -0.631
34748	  0.189	 -0.211	  0.455	  0.270	  0.140	 -9.770	  0.059	  0.028	  0.013	 32.200	 98.753	 -0.267
34798	  0.193	 -0.208	  0.458	  0.243	 -0.319	 -9.947	 -0.021	 -0.043	 -0.001	 32.200	 98.757	 -0.631
34848	  0.191	 -0.212	  0.449	 -0.008	  0.113	 -9.830	 -0.131	  0.006	 -0.011	 32.200	 98.746	  0.368
34898	  0.191	 -0.214	  0.453	 -0.010	  0.587	 -9.621	  0.051	 -0.058	 -0.004	 32.200	 98.764	 -1.267
34948	  0.191	 -0.212	  0.455	  0.157	 -0.267	 -9.894	  0.076	  0.122	  0.003	 32.200	 98.757	 -0.631
34998	  0.192	 -0.209	  0.457	  0.490	 -0.006	 -9.708	 -0.013	  0.035	 -0.005	 32.200	 98.746	  0.368
35048	  0.195	 -0.204	  0.455	  1.036	  0.012	 -9.457	  0.079	 -0.187	 -0.205	 32.200	 98.757	 -0.631
35098	  0.201	 -0.207	  0.454	 -0.727	 -0.198	 -10.178	 -0.011	 -0.119	 -0.213	 32.200	 98.757	 -0.631
35148	  0.204	 -0.207	  0.451	 -0.201	  0.021	 -9.912	 -0.126	 -0.032	  0.001	 32.200	 98.746	  0.368
35198	  0.203	 -0.209	  0.454	 -0.145	  0.341	 -9.734	 -0.072	  0.044	 -0.003	 32.200	 98.742	  0.732
35248	  0.200	 -0.219	  0.459	  0.071	  0.202	 -9.754	  0.031	  0.127	  0.002	 32.200	 98.753	 -0.267
35298	  0.194	 -0.215	  0.453	  0.385	  0.062	 -9.709	  0.068	  0.103	  0.003	 32.200	 98.757	 -0.631
35348	  0.196	 -0.216	  0.462	  0.430	 -0.232	 -9.781	  0.029	  0.054	  0.005	 32.200	 98.753	 -0.267
35398	  0.197	 -0.216	  0.454	  0.358	 -0.129	 -9.719	 -0.070	 -0.008	  0.009	 32.200	 98.746	  0.368
35448	  0.198	 -0.223	  0.458	  0.168	  0.054	 -9.815	 -0.106	  0.000	  0.003	 32.200	 98.753	 -0.267
35498	  0.198	 -0.219	  0.456	  0.210	  0.353	 -9.662	 -0.074	  0.044	  0.007	 32.200	 98.742	  0.732
35548	  0.191	 -0.225	  0.453	  0.323	  0.480	 -9.626	  0.058	  0.016	  0.004	 32.200	 98.753	 -0.267
35597	  0.192	 -0.218	  0.456	  0.510	  0.003	 -9.786	  0.107	 -0.038	  0.005	 32.200	 98.746	  0.368
35647	  0.193	 -0.223	  0.454	  0.290	 -0.235	 -9.822	  0.024	 -0.120	  0.003	 32.200	 98.757	 -0.631
35698	  0.198	 -0.216	  0.451	 -0.128	 -0.136	 -9.955	 -0.093	 -0.049	 -0.001	 32.200	 98.764	 -1.267
35747	  0.196	 -0.214	  0.453	  0.040	  0.263	 -9.691	 -0.099	  0.078	  0.001	 32.200	 98.742	  0.732
35797	  0.193	 -0.223	  0.448	  0.358	  0.439	 -9.570	  0.025	  0.095	  0.006	 32.200	 98.753	 -0.267
35847	  0.191	 -0.217	  0.451	  0.519	  0.130	 -9.645	  0.110	 -0.002	  0.004	 32.200	 98.753	 -0.267
35897	  0.195	 -0.221	  0.454	  0.296	 -0.245	 -9.839	  0.053	 -0.091	  0.006	 32.200	 98.746	  0.368
35947	  0.198	 -0.214	  0.454	 -0.010	 -0.188	 -9.914	 -0.088	 -0.057	  0.003	 32.200	 98.753	 -0.267
35997	  0.197	 -0.222	  0.452	 -0.045	  0.204	 -9.858	 -0.115	  0.047	 -0.001	 32.200	 98.757	 -0.631
36047	  0.193	 -0.226	  0.454	  0.249	  0.440	 -9.668	 -0.002	  0.094	  0.002	 32.200	 98.757	 -0.631
36097	  0.192	 -0.222	  0.458	  0.492	  0.221	 -9.698	  0.109	  0.027	  0.004	 32.200	 98.746	  0.368
36148	  0.191	 -0.218	  0.452	  0.364	 -0.215	 -9.780	  0.080	 -0.066	  0.007	 32.200	 98.742	  0.732
36198	  0.197	 -0.206	  0.458	  0.091	 -0.279	 -9.955	 -0.065	 -0.071	  0.004	 32.200	 98.757	 -0.631
36248	  0.199	 -0.221	  0.451	 -0.019	  0.145	 -9.789	 -0.132	  0.020	  0.003	 32.200	 98.757	 -0.631
36298	  0.197	 -0.221	  0.449	  0.141	  0.449	 -9.718	 -0.033	  0.091	  0.005	 32.200	 98.746	  0.368
36348	  0.194	 -0.222	  0.456	  0.650	 -0.729	 -9.981	  0.052	  0.048	 -0.016	 32.200	 98.753	 -0.267
36398	  0.192	 -0.223	  0.452	  0.529	  0.374	 -9.666	 -0.361	  0.127	 -0.011	 32.200	 98.757	 -0.631
36448	  0.186	 -0.233	  0.454	  0.581	  1.060	 -9.539	 -0.019	  0.069	 -0.027	 32.200	 98.746	  0.368
36498	  0.189	 -0.223	  0.449	  0.904	  0.517	 -9.543	  0.206	 -0.036	 -0.199	 32.200	 98.757	 -0.631
36548	  0.194	 -0.215	  0.457	  0.741	  0.213	 -9.801	  0.371	 -0.223	 -0.328	 32.200	 98.735	  1.367
36598	  0.201	 -0.210	  0.455	 -0.507	 -1.033	 -10.631	  0.069	 -0.127	 -0.325	 32.200	 98.757	 -0.631
36648	  0.200	 -0.211	  0.459	 -0.381	 -0.192	 -10.117	 -0.231	  0.192	  0.048	 32.200	 98.753	 -0.267
36698	  0.195	 -0.214	  0.456	  0.553	  0.802	 -9.400	 -0.127	  0.240	  0.024	 32.200	 98.757	 -0.631
36748	  0.191	 -0.209	  0.463	  0.787	  0.221	 -9.700	  0.020	  0.070	  0.078	 32.200	 98.753	 -0.267
36798	  0.193	 -0.210	  0.456	  0.662	 -0.099	 -9.832	 -0.003	 -0.005	 -0.051	 32.200	 98.753	 -0.267
36848	  0.190	 -0.213	  0.458	  0.404	  0.204	 -9.729	  0.008	 -0.012	 -0.136	 32.200	 98.757	 -0.631
36898	  0.194	 -0.214	  0.462	  0.189	  0.253	 -9.771	 -0.015	  0.002	 -0.009	 32.200	 98.757	 -0.631
36948	  0.192	 -0.210	  0.461	  0.113	  0.314	 -9.844	  0.012	  0.093	  0.020	 32.200	 98.757	 -0.631
36998	  0.187	 -0.220	  0.463	  0.463	  0.108	 -9.705	  0.005	  0.222	  0.006	 32.200	 98.757	 -0.631
37048	  0.180	 -0.209	  0.454	  1.033	  0.023	 -9.651	 -0.037	  0.251	 -0.025	 32.200	 98.753	 -0.267
37098	  0.176	 -0.210	  0.463	  1.089	  0.266	 -9.872	 -0.032	  0.123	  0.061	 32.200	 98.753	 -0.267
37148	  0.174	 -0.212	  0.467	  1.238	  0.358	 -9.657	 -0.011	 -0.048	  0.002	 32.200	 98.753	 -0.267
37198	  0.173	 -0.215	  0.471	  0.693	 -0.006	 -10.352	 -0.028	  0.034	  0.040	 32.200	 98.753	 -0.267
37248	  0.174	 -0.215	  0.472	  0.790	  0.247	 -10.246	 -0.019	 -0.216	  0.138	 32.200	 98.753	 -0.267
37298	  0.174	 -0.219	  0.472	  0.618	 -0.043	 -10.174	 -0.093	 -0.231	  0.149	 32.200	 98.753	 -0.267
37348	  0.175	 -0.222	  0.472	  0.065	  0.101	 -10.061	 -0.160	 -0.175	  0.228	 32.200	 98.753	 -0.267
37398	  0.167	 -0.228	  0.471	  0.512	  0.340	 -9.878	 -0.098	  0.084	  0.213	 32.200	 98.757	 -0.631
37447	  0.153	 -0.229	  0.477	  0.979	  0.048	 -9.702	 -0.000	  0.255	  0.124	 32.200	 98.757	 -0.631
37497	  0.143	 -0.230	  0.481	  1.166	  0.164	 -9.942	 -0.029	 -0.014	  0.252	 32.200	 98.746	  0.368
37547	  0.139	 -0.232	  0.484	  0.894	 -0.002	 -9.574	  0.045	 -0.231	  0.262	 32.200	 98.746	  0.368
37597	  0.137	 -0.220	  0.484	  0.385	  0.145	 -9.616	 -0.061	 -0.336	  0.323	 32.200	 98.757	 -0.631
37647	  0.137	 -0.228	  0.490	  0.232	  0.012	 -9.656	 -0.034	 -0.146	  0.408	 32.200	 98.757	 -0.631
37697	  0.129	 -0.239	  0.495	  0.394	  0.227	 -9.745	  0.053	 -0.095	  0.406	 32.200	 98.757	 -0.631
37748	  0.124	 -0.233	  0.497	  0.810	 -0.235	 -9.658	  0.090	 -0.145	  0.462	 32.200	 98.746	  0.368
37797	  0.120	 -0.236	  0.506	  0.224	 -0.112	 -9.924	 -0.053	 -0.270	  0.567	 32.200	 98.757	 -0.631
37847	  0.114	 -0.243	  0.522	  0.295	  0.017	 -9.742	 -0.099	 -0.202	  0.600	 32.200	 98.746	  0.368
37897	  0.110	 -0.244	  0.530	  0.074	 -0.068	 -9.838	 -0.086	 -0.103	  0.505	 32.200	 98.746	  0.368
37947	  0.101	 -0.246	  0.544	  0.325	  0.023	 -9.655	 -0.051	 -0.064	  0.526	 32.200	 98.742	  0.732
37997	  0.087	 -0.250	  0.558	  0.147	 -0.099	 -9.918	 -0.090	 -0.017	  0.475	 32.200	 98.730	  1.821
38047	  0.071	 -0.253	  0.576	  0.493	  0.108	 -9.629	 -0.214	 -0.027	  0.414	 32.200	 98.742	  0.732
38097	  0.060	 -0.261	  0.595	  0.102	  0.304	 -9.475	 -0.037	 -0.127	  0.363	 32.200	 98.757	 -0.631
38147	  0.046	 -0.250	  0.612	 -0.188	  0.215	 -9.677	  0.021	 -0.148	  0.476	 32.200	 98.757	 -0.631
38197	  0.030	 -0.244	  0.636	 -0.398	  0.092	 -9.812	  0.058	 -0.017	  0.579	 32.200	 98.757	 -0.631
38247	  0.008	 -0.229	  0.653	 -0.163	  0.075	 -9.662	  0.043	  0.020	  0.677	 32.200	 98.757	 -0.631
38297	 -0.016	 -0.223	  0.671	  0.057	 -0.001	 -9.661	  0.090	  0.038	  0.730	 32.200	 98.757	 -0.631
38347	 -0.044	 -0.209	  0.692	 -0.151	  0.141	 -9.903	  0.139	  0.129	  0.687	 32.200	 98.742	  0.732
38397	 -0.071	 -0.182	  0.713	  0.328	 -0.074	 -9.859	  0.159	  0.227	  0.580	 32.200	 98.757	 -0.631
38447	 -0.106	 -0.152	  0.715	  0.513	 -0.206	 -9.649	  0.188	  0.078	  0.508	 32.200	 98.746	  0.368
38497	 -0.131	 -0.120	  0.722	  0.059	 -0.228	 -9.638	  0.096	 -0.162	  0.611	 32.200	 98.746	  0.368
38547	 -0.149	 -0.087	  0.721	 -0.264	 -0.325	 -9.631	 -0.001	 -0.031	  0.665	 32.200	 98.746	  0.368
38597	 -0.174	 -0.049	  0.716	 -0.119	 -0.308	 -9.581	  0.039	  0.002	  0.743	 32.200	 98.735	  1.367
38647	 -0.191	 -0.020	  0.716	  0.054	 -0.552	 -9.420	  0.026	 -0.006	  0.810	 32.200	 98.757	 -0.631
38697	 -0.204	  0.036	  0.701	  0.206	 -0.642	 -9.529	  0.091	  0.024	  0.867	 32.200	 98.757	 -0.631
38747	 -0.214	  0.063	  0.687	 -0.021	 -0.698	 -9.490	  0.082	  0.163	  0.958	 32.200	 98.757	 -0.631
38797	 -0.220	  0.108	  0.659	  0.718	 -0.708	 -9.224	  0.062	  0.023	  0.993	 32.200	 98.757	 -0.631
38847	 -0.210	  0.148	  0.635	  0.381	 -0.452	 -9.288	  0.139	 -0.270	  1.052	 32.200	 98.746	  0.368
38897	 -0.191	  0.184	  0.600	 -0.125	 -1.033	 -10.142	 -0.062	 -0.121	  1.010	 32.200	 98.757	 -0.631
38947	 -0.176	  0.209	  0.575	 -0.138	 -0.243	 -10.041	 -0.106	 -0.015	  0.983	 32.200	 98.742	  0.732
38997	 -0.148	  0.228	  0.537	 -0.185	 -0.050	 -10.467	  0.040	  0.054	  0.900	 32.200	 98.757	 -0.631
39048	 -0.127	  0.252	  0.501	 -0.291	  0.064	 -10.518	  0.069	  0.147	  0.972	 32.200	 98.757	 -0.631
39098	 -0.101	  0.248	  0.480	  0.043	 -0.085	 -10.250	  0.111	  0.136	  1.056	 32.200	 98.757	 -0.631
39148	 -0.072	  0.254	  0.444	 -0.384	 -0.252	 -10.217	  0.099	  0.042	  1.136	 32.200	 98.753	 -0.267
39198	 -0.046	  0.249	  0.425	 -0.466	 -0.342	 -9.793	 -0.038	  0.156	  1.255	 32.200	 98.757	 -0.631
39248	 -0.020	  0.238	  0.403	 -0.259	 -0.098	 -9.258	 -0.037	  0.213	  1.253	 32.200	 98.757	 -0.631
39298	  0.002	  0.228	  0.390	 -0.250	 -0.239	 -9.194	 -0.000	  0.115	  1.296	 32.200	 98.746	  0.368
39348	  0.027	  0.215	  0.374	  0.069	 -0.331	 -8.777	 -0.074	 -0.026	  1.130	 32.200	 98.746	  0.368
39398	  0.047	  0.205	  0.364	 -0.433	 -0.102	 -9.098	 -0.126	 -0.102	  0.982	 32.200	 98.757	 -0.631
39448	  0.068	  0.190	  0.354	 -0.466	 -0.164	 -9.352	 -0.057	 -0.082	  0.814	 32.200	 98.764	 -1.267
39498	  0.080	  0.181	  0.347	 -0.951	  0.111	 -9.830	 -0.096	 -0.150	  0.702	 32.200	 98.757	 -0.631
39548	  0.092	  0.161	  0.340	 -0.607	  0.137	 -10.241	 -0.054	 -0.017	  0.546	 32.200	 98.746	  0.368
39598	  0.098	  0.153	  0.331	 -0.964	  0.161	 -10.337	  0.004	 -0.021	  0.478	 32.200	 98.757	 -0.631
39648	  0.101	  0.139	  0.327	 -0.110	 -0.055	 -10.515	 -0.036	  0.278	  0.495	 32.200	 98.757	 -0.631
39698	  0.101	  0.124	  0.322	  0.279	  0.230	 -9.926	 -0.031	  0.144	  0.452	 32.200	 98.757	 -0.631
39748	  0.102	  0.130	  0.321	  0.340	 -0.189	 -10.496	 -0.008	  0.137	  0.386	 32.200	 98.757	 -0.631
39798	  0.101	  0.120	  0.316	  0.313	  0.220	 -9.803	 -0.098	  0.082	  0.447	 32.200	 98.746	  0.368
39848	  0.102	  0.104	  0.315	 -0.347	  0.111	 -9.415	  0.004	  0.236	  0.683	 32.200	 98.753	 -0.267
39898	  0.098	  0.100	  0.313	 -0.358	  0.086	 -8.744	  0.029	  0.208	  0.359	 32.200	 98.746	  0.368
39948	  0.096	  0.086	  0.306	  0.357	 -0.414	 -8.664	  0.004	  0.226	  0.288	 32.200	 98.757	 -0.631
39998	  0.093	  0.074	  0.310	 -0.020	 -0.194	 -8.460	 -0.090	 -0.004	  0.056	 32.200	 98.753	 -0.267
40048	  0.093	  0.074	  0.299	 -0.371	 -0.235	 -8.984	  0.054	 -0.277	  0.139	 32.200	 98.757	 -0.631
40098	  0.093	  0.073	  0.302	 -0.190	 -0.045	 -10.593	  0.058	 -0.077	  0.032	 32.200	 98.757	 -0.631
40148	  0.096	  0.072	  0.294	  0.118	  0.134	 -10.677	  0.116	 -0.259	  0.014	 32.200	 98.746	  0.368
40198	  0.096	  0.069	  0.292	  0.147	 -0.080	 -11.458	  0.097	 -0.193	 -0.188	 32.200	 98.757	 -0.631
40248	  0.087	  0.069	  0.291	  0.241	  0.628	 -11.716	  0.040	  0.461	 -0.406	 32.200	 98.757	 -0.631
40298	  0.076	  0.069	  0.292	  1.291	  0.834	 -9.701	  0.203	  0.010	 -0.391	 32.200	 98.746	  0.368
40348	  0.076	  0.080	  0.286	  0.442	  0.224	 -10.846	  0.170	 -0.042	 -0.407	 32.200	 98.757	 -0.631
40398	  0.067	  0.076	  0.291	  0.079	  0.652	 -10.066	  0.094	  0.258	 -0.336	 32.200	 98.757	 -0.631
40448	  0.059	  0.074	  0.285	  0.806	  0.352	 -8.849	  0.004	  0.295	 -0.329	 32.200	 98.757	 -0.631
40498	  0.050	  0.074	  0.282	  0.277	  0.789	 -8.021	  0.042	  0.161	 -0.451	 32.200	 98.746	  0.368
40548	  0.047	  0.073	  0.288	  0.138	  0.298	 -8.022	  0.078	  0.017	 -0.178	 32.200	 98.753	 -0.267
40598	  0.042	  0.077	  0.281	 -0.231	  0.502	 -8.354	  0.015	  0.034	 -0.110	 32.200	 98.746	  0.368
40648	  0.039	  0.068	  0.285	 -0.088	  0.452	 -8.986	  0.021	  0.094	 -0.053	 32.200	 98.746	  0.368
40698	  0.038	  0.068	  0.281	  0.202	  0.033	 -9.340	  0.026	  0.017	 -0.120	 32.200	 98.757	 -0.631
40748	  0.039	  0.062	  0.279	  0.340	  0.345	 -10.609	  0.064	 -0.045	  0.071	 32.200	 98.757	 -0.631
40798	  0.041	  0.062	  0.278	  0.854	 -1.307	 -12.944	 -0.091	  0.039	  0.288	 32.200	 98.768	 -1.630
40848	  0.038	  0.042	  0.277	  1.512	  0.205	 -10.940	 -0.374	  0.269	  0.413	 32.200	 98.753	 -0.267
40898	  0.036	  0.031	  0.278	  1.738	 -0.751	 -11.044	 -0.139	 -0.198	  0.399	 32.200	 98.746	  0.368
40948	  0.035	  0.022	  0.281	  1.359	 -0.633	 -11.253	 -0.230	  0.222	  0.175	 32.200	 98.746	  0.368
40998	  0.022	  0.017	  0.285	  2.303	 -0.431	 -8.748	 -0.191	  0.476	  0.199	 32.200	 98.746	  0.368
41048	  0.011	  0.011	  0.287	  2.069	 -0.263	 -6.725	 -0.049	 -0.053	 -0.110	 32.200	 98.757	 -0.631
41098	  0.009	  0.002	  0.290	  0.588	 -0.140	 -7.165	 -0.048	 -0.288	 -0.057	 32.200	 98.735	  1.367
41148	  0.007	 -0.000	  0.288	  0.007	 -0.718	 -8.697	 -0.058	 -0.172	 -0.288	 32.200	 98.746	  0.368
41198	  0.002	  0.001	  0.300	  0.179	 -0.571	 -9.042	 -0.151	 -0.202	 -0.387	 32.200	 98.757	 -0.631
41248	 -0.010	 -0.002	  0.306	  0.140	 -0.342	 -10.740	  0.078	 -0.083	 -0.377	 32.200	 98.757	 -0.631
41298	 -0.013	 -0.011	  0.315	  0.227	 -0.065	 -11.477	  0.063	 -0.102	 -0.173	 32.200	 98.757	 -0.631
41348	 -0.014	 -0.002	  0.311	  1.640	 -0.479	 -11.301	  0.269	 -0.637	 -0.279	 32.200	 98.746	  0.368
41398	 -0.012	  0.001	  0.326	  0.530	 -0.430	 -12.075	  0.127	  0.222	 -0.213	 32.200	 98.746	  0.368
41448	 -0.011	  0.004	  0.329	  1.583	  0.836	 -9.426	  0.279	 -0.663	 -0.171	 32.200	 98.746	  0.368
41498	  0.004	  0.012	  0.330	  1.251	 -0.222	 -11.271	  0.010	 -0.898	  0.142	 32.200	 98.746	  0.368
41548	  0.020	  0.002	  0.331	  0.858	 -0.172	 -9.678	 -0.591	 -0.865	  0.367	 32.200	 98.757	 -0.631
41598	  0.032	 -0.012	  0.332	 -0.352	  0.856	 -7.772	 -0.647	 -0.546	  0.141	 32.200	 98.746	  0.368
41648	  0.028	 -0.004	  0.338	 -2.162	  0.723	 -7.480	 -0.108	  0.717	 -0.232	 32.200	 98.753	 -0.267
41698	  0.006	 -0.010	  0.337	  0.607	  0.083	 -6.916	 -0.044	  0.525	 -0.085	 32.200	 98.746	  0.368
41748	  0.002	 -0.003	  0.342	 -1.305	  1.676	 -8.197	  0.063	 -0.106	 -0.144	 32.200	 98.746	  0.368
41798	 -0.003	 -0.001	  0.338	 -1.116	 -0.530	 -9.834	  0.262	 -0.096	  0.194	 32.200	 98.757	 -0.631
41848	 -0.009	  0.005	  0.338	 -1.815	  0.839	 -10.466	  0.363	  0.006	  0.141	 32.200	 98.757	 -0.631
41898	 -0.011	  0.029	  0.343	  0.033	 -0.147	 -11.689	  0.064	 -0.021	  1.086	 32.200	 98.746	  0.368
41948	 -0.005	  0.026	  0.346	  0.220	 -0.213	 -12.963	 -0.122	 -0.403	  0.781	 32.200	 98.757	 -0.631
41998	  0.003	  0.031	  0.350	 -1.483	  0.661	 -11.141	  0.203	  0.114	  0.533	 32.200	 98.757	 -0.631
42048	  0.005	  0.046	  0.353	  1.311	 -0.805	 -11.114	  0.405	  0.115	  0.438	 32.200	 98.757	 -0.631
42098	  0.016	  0.060	  0.356	  0.932	 -0.495	 -10.961	  0.295	 -0.027	  0.712	 32.200	 98.757	 -0.631
42148	  0.025	  0.065	  0.360	  0.433	 -0.835	 -8.144	  0.060	  0.378	  0.628	 32.200	 98.757	 -0.631
42198	  0.030	  0.077	  0.355	 -0.614	  0.249	 -7.026	  0.072	  0.427	  0.666	 32.200	 98.746	  0.368
42248	  0.028	  0.070	  0.359	  0.377	 -0.949	 -6.417	 -0.178	  0.499	 -0.097	 32.200	 98.746	  0.368
42298	  0.023	  0.067	  0.360	 -0.898	 -0.061	 -7.702	 -0.212	  0.147	  0.048	 32.200	 98.746	  0.368
42348	  0.030	  0.064	  0.355	 -0.917	 -0.650	 -9.600	 -0.439	 -0.050	 -0.004	 32.200	 98.746	  0.368
42398	  0.033	  0.050	  0.356	  0.004	 -0.534	 -10.770	 -0.216	  0.220	 -0.067	 32.200	 98.757	 -0.631
42448	  0.036	  0.047	  0.351	 -0.934	  2.141	 -11.175	 -0.217	 -0.364	 -0.264	 32.200	 98.735	  1.367
42498	  0.038	  0.043	  0.352	 -0.026	  1.130	 -12.308	  0.010	  0.293	 -0.021	 32.200	 98.746	  0.368
42548	  0.030	  0.047	  0.343	  2.343	  0.390	 -10.791	  0.323	  0.287	 -0.152	 32.200	 98.746	  0.368
42598	  0.030	  0.044	  0.349	  1.018	  0.790	 -11.116	  0.138	  0.043	 -0.431	 32.200	 98.746	  0.368
42648	  0.022	  0.049	  0.342	  0.922	  1.032	 -10.688	  0.286	  0.335	 -0.270	 32.200	 98.746	  0.368
42698	  0.015	  0.051	  0.337	  1.490	  0.316	 -8.889	  0.109	  0.141	 -0.121	 32.200	 98.757	 -0.631
42748	  0.013	  0.054	  0.339	  0.813	  0.215	 -7.941	  0.032	 -0.067	 -0.104	 32.200	 98.742	  0.732
42798	  0.013	  0.055	  0.336	  0.644	 -0.104	 -7.767	  0.035	 -0.049	 -0.252	 32.200	 98.746	  0.368
42848	  0.011	  0.051	  0.325	  0.205	  0.440	 -8.111	 -0.049	 -0.114	 -0.197	 32.200	 98.757	 -0.631
42897	  0.012	  0.050	  0.332	  1.035	  0.231	 -8.162	  0.042	 -0.164	 -0.188	 32.200	 98.757	 -0.631
42948	  0.016	  0.053	  0.331	  0.331	  0.117	 -9.504	  0.116	 -0.348	 -0.038	 32.200	 98.757	 -0.631
42997	  0.018	  0.048	  0.325	  0.687	 -0.296	 -10.867	 -0.015	 -0.100	  0.015	 32.200	 98.768	 -1.630
43047	  0.013	  0.054	  0.333	  0.812	  0.701	 -11.066	  0.009	  0.380	 -0.049	 32.200	 98.757	 -0.631
43097	  0.002	  0.062	  0.326	  2.151	 -0.417	 -10.275	  0.166	  0.242	 -0.041	 32.200	 98.757	 -0.631
43147	 -0.002	  0.056	  0.327	  2.228	 -0.792	 -11.229	  0.081	 -0.007	 -0.044	 32.200	 98.768	 -1.630
43197	 -0.007	  0.061	  0.325	  1.957	 -0.331	 -11.069	  0.062	  0.106	 -0.290	 32.200	 98.746	  0.368
43247	 -0.014	  0.058	  0.329	  1.716	 -0.568	 -9.778	 -0.007	  0.109	 -0.209	 32.200	 98.757	 -0.631
43297	 -0.019	  0.060	  0.336	  0.945	 -0.541	 -8.901	 -0.193	 -0.008	 -0.185	 32.200	 98.746	  0.368
43347	 -0.025	  0.045	  0.339	  1.125	  0.214	 -7.408	 -0.147	  0.048	 -0.395	 32.200	 98.757	 -0.631
43397	 -0.031	  0.047	  0.338	  1.047	  0.138	 -7.406	  0.256	 -0.070	 -0.612	 32.200	 98.757	 -0.631
43447	 -0.037	  0.053	  0.336	  0.822	 -0.446	 -7.683	  0.354	 -0.176	 -0.758	 32.200	 98.746	  0.368
43497	 -0.047	  0.062	  0.338	  1.292	 -0.634	 -8.750	  0.477	  0.131	 -0.787	 32.200	 98.746	  0.368
43547	 -0.065	  0.062	  0.337	  2.318	 -0.527	 -9.001	  0.414	  0.084	 -1.380	 32.200	 98.757	 -0.631
43597	 -0.082	  0.070	  0.345	  2.029	  0.034	 -9.208	  0.394	 -0.323	 -1.778	 32.200	 98.757	 -0.631
43647	 -0.096	  0.055	  0.339	  1.140	  0.406	 -11.879	  0.338	 -0.045	 -1.648	 32.200	 98.757	 -0.631
43697	 -0.120	  0.047	  0.340	  2.930	  0.326	 -10.041	  0.168	 -0.333	 -1.676	 32.200	 98.746	  0.368
43747	 -0.129	  0.043	  0.347	  0.127	  0.913	 -10.908	  0.301	 -0.008	 -1.537	 32.200	 98.746	  0.368
43797	 -0.149	  0.036	  0.346	  0.745	 -0.995	 -22.159	 -0.317	  0.404	 -1.103	 32.200	 98.746	  0.368
43847	 -0.164	  0.017	  0.353	  9.146	 -1.680	 -24.379	 -0.616	  0.045	 -0.967	 32.200	 98.757	 -0.631
43897	 -0.132	 -0.002	  0.382	  2.532	  1.503	 -11.525	 -1.118	 -1.439	 -1.157	 32.200	 98.750	  0.005
43947	 -0.092	 -0.020	  0.399	 -1.200	 -1.640	  8.398	 -0.562	 -1.582	 -0.907	 32.200	 98.750	  0.005
43997	 -0.073	 -0.034	  0.409	 -6.344	  0.131	 24.355	 -0.098	  0.949	 -0.743	 32.200	 98.735	  1.367
44047	 -0.134	 -0.031	  0.398	 -0.706	  1.283	 -3.606	  0.325	  2.067	 -0.268	 32.200	 98.746	  0.368
44097	 -0.201	 -0.067	  0.380	 25.114	  2.981	 -53.855	 -0.952	  2.516	 -1.503	 32.200	 98.757	 -0.631
44147	 -0.168	 -0.064	  0.394	  3.551	 -0.405	 -16.732	 -0.031	 -4.174	  0.242	 32.200	 98.757	 -0.631
44197	 -0.105	 -0.038	  0.410	 -9.526	 -1.233	 23.277	  0.540	 -0.403	  0.342	 32.200	 98.746	  0.368
44247	 -0.139	 -0.041	  0.408	 -4.840	  0.280	  7.308	 -0.149	  2.212	 -0.225	 32.200	 98.746	  0.368
44297	 -0.205	 -0.070	  0.387	 18.613	  4.844	 -55.493	 -0.378	  2.349	 -0.564	 32.200	 98.746	  0.368
44347	 -0.167	 -0.057	  0.402	  2.534	  1.284	 -14.831	 -0.052	 -4.109	  0.772	 32.200	 98.757	 -0.631
44397	 -0.098	 -0.037	  0.419	 -8.939	 -1.091	 27.051	  0.118	 -0.377	  0.592	 32.200	 98.746	  0.368
44447	 -0.146	 -0.049	  0.415	 -1.573	 -0.246	  1.310	 -0.019	  2.532	 -0.041	 32.200	 98.735	  1.367
44497	 -0.213	 -0.064	  0.391	 20.505	  2.043	 -55.965	  0.428	  1.570	 -0.463	 32.200	 98.757	 -0.631
44547	 -0.140	 -0.051	  0.417	 -3.133	  1.957	 -1.847	 -0.321	 -3.136	  1.058	 32.200	 98.746	  0.368
44597	 -0.124	 -0.040	  0.420	 -6.707	 -2.232	 28.008	  0.264	  1.747	 -0.116	 32.200	 98.746	  0.368
44647	 -0.189	 -0.048	  0.406	  8.752	 -0.120	 -29.566	  0.208	  1.823	 -0.785	 32.200	 98.757	 -0.631
44697	 -0.219	 -0.063	  0.394	 10.647	  0.375	 -31.156	 -0.193	 -1.220	  0.379	 32.200	 98.757	 -0.631
44747	 -0.150	 -0.046	  0.424	 -5.342	 -2.132	 -10.962	 -0.280	 -1.424	  1.004	 32.200	 98.746	  0.368
44797	 -0.099	 -0.041	  0.440	 -3.522	 -2.486	 -3.015	 -0.459	 -1.059	  0.239	 32.200	 98.757	 -0.631
44848	 -0.051	 -0.045	  0.459	 -4.029	 -0.685	 -2.939	 -0.389	 -1.304	 -0.498	 32.200	 98.746	  0.368
44897	 -0.004	 -0.040	  0.475	 -2.797	 -0.109	 -5.590	  0.042	 -0.572	  0.185	 32.200	 98.746	  0.368
44948	  0.041	 -0.039	  0.490	 -0.071	  0.414	 -4.389	 -0.481	 -1.181	 -0.840	 32.200	 98.750	  0.005
44997	  0.100	 -0.030	  0.507	 -2.668	  2.903	 -7.497	  0.492	 -0.208	  0.322	 32.200	 98.746	  0.368
45048	  0.125	 -0.005	  0.534	  3.354	  0.815	 -8.744	  0.323	  0.816	 -0.333	 32.200	 98.746	  0.368
45098	  0.126	  0.017	  0.567	  1.833	  3.404	 -8.134	  0.224	  0.647	 -0.053	 32.200	 98.746	  0.368
45148	  0.141	  0.020	  0.598	  1.902	  0.262	 -9.900	 -0.633	 -0.581	 -1.458	 32.200	 98.746	  0.368
45198	  0.171	  0.014	  0.614	 -0.119	  5.282	 -10.005	  0.072	 -0.664	 -0.904	 32.200	 98.757	 -0.631
45248	  0.174	  0.027	  0.636	  0.647	  1.249	 -9.929	 -0.093	  0.397	 -0.795	 32.200	 98.757	 -0.631
45298	  0.177	  0.034	  0.649	  0.902	  2.588	 -9.102	  0.019	 -0.655	 -0.854	 32.200	 98.757	 -0.631
45348	  0.199	  0.034	  0.654	 -1.450	  1.498	 -10.589	 -0.185	 -0.584	 -0.856	 32.200	 98.746	  0.368
45398	  0.207	  0.038	  0.659	 -1.058	  2.078	 -7.598	  0.515	 -0.037	 -0.645	 32.200	 98.757	 -0.631
45448	  0.203	  0.065	  0.660	 -0.913	 -0.325	 -9.600	  1.038	  0.226	 -0.357	 32.200	 98.746	  0.368
45498	  0.183	  0.078	  0.668	 -3.824	  0.844	 -11.944	 -0.141	  0.950	 -0.786	 32.200	 98.757	 -0.631
45548	  0.143	  0.068	  0.693	 -0.677	  0.111	 -11.273	 -0.381	  1.197	 -0.164	 32.200	 98.761	 -0.995
45598	  0.103	  0.052	  0.703	  1.217	  0.860	 -9.970	 -0.214	  0.752	 -0.521	 32.200	 98.750	  0.005
45648	  0.085	  0.047	  0.715	 -0.243	 -0.878	 -10.199	 -0.288	  0.410	 -0.676	 32.200	 98.757	 -0.631
45698	  0.068	  0.023	  0.726	 -0.848	  0.573	 -10.213	 -0.497	  0.360	 -0.557	 32.200	 98.757	 -0.631
45748	  0.065	  0.004	  0.734	  0.042	  1.567	 -8.587	 -0.141	  0.121	 -0.184	 32.200	 98.746	  0.368
45798	  0.065	  0.014	  0.738	  0.071	  0.432	 -9.580	  0.471	  0.071	 -0.396	 32.200	 98.746	  0.368
45848	  0.065	  0.023	  0.745	 -1.358	 -0.320	 -11.745	  0.205	  0.336	 -0.031	 32.200	 98.746	  0.368
45898	  0.049	  0.021	  0.746	  0.953	  0.176	 -9.321	 -0.086	  0.331	 -0.062	 32.200	 98.746	  0.368
45948	  0.051	  0.021	  0.751	  0.225	  0.909	 -8.991	  0.187	 -0.001	 -0.052	 32.200	 98.746	  0.368
45998	  0.059	  0.027	  0.756	  0.148	  0.241	 -10.204	  0.214	 -0.084	 -0.138	 32.200	 98.753	 -0.267
46048	  0.065	  0.025	  0.757	 -0.041	 -0.531	 -10.320	 -0.112	  0.184	  0.057	 32.200	 98.757	 -0.631
46098	  0.064	  0.027	  0.756	  0.935	  1.067	 -9.249	  0.016	  0.028	 -0.097	 32.200	 98.757	 -0.631
46148	  0.064	  0.025	  0.758	  0.158	 -0.213	 -10.103	  0.047	 -0.027	 -0.040	 32.200	 98.746	  0.368
46198	  0.066	  0.025	  0.760	 -0.103	 -0.011	 -9.911	 -0.058	  0.022	 -0.017	 32.200	 98.757	 -0.631
46248	  0.062	  0.024	  0.758	  0.267	  0.186	 -9.831	 -0.114	 -0.039	  0.151	 32.200	 98.742	  0.732
46298	  0.066	  0.021	  0.758	  0.294	  0.854	 -9.397	  0.030	  0.042	 -0.026	 32.200	 98.757	 -0.631
46348	  0.061	  0.031	  0.750	  0.131	  0.169	 -9.964	  0.330	 -0.016	 -0.088	 32.200	 98.746	  0.368
46398	  0.063	  0.038	  0.758	 -0.191	 -0.543	 -10.173	  0.157	  0.007	 -0.133	 32.200	 98.746	  0.368
46448	  0.060	  0.034	  0.757	  0.037	 -0.419	 -9.983	 -0.214	  0.016	  0.034	 32.200	 98.746	  0.368
46498	  0.064	  0.028	  0.762	  0.351	  0.383	 -9.721	 -0.257	 -0.037	  0.227	 32.200	 98.735	  1.367
46548	  0.065	  0.021	  0.761	  0.396	  0.549	 -9.569	 -0.077	 -0.019	  0.083	 32.200	 98.746	  0.368
46598	  0.062	  0.025	  0.757	  0.415	  0.380	 -9.618	  0.117	  0.004	 -0.040	 32.200	 98.746	  0.368
46648	  0.064	  0.029	  0.756	  0.255	  0.117	 -9.773	  0.158	  0.008	 -0.097	 32.200	 98.746	  0.368
46698	  0.064	  0.035	  0.753	  0.221	 -0.223	 -9.931	  0.044	  0.004	 -0.027	 32.200	 98.735	  1.367
46748	  0.062	  0.033	  0.755	  0.298	 -0.033	 -9.825	 -0.089	  0.010	  0.011	 32.200	 98.746	  0.368
46798	  0.061	  0.030	  0.754	  0.365	  0.299	 -9.657	 -0.056	 -0.000	  0.035	 32.200	 98.746	  0.368
46848	  0.063	  0.033	  0.758	  0.334	  0.284	 -9.689	  0.032	  0.002	  0.005	 32.200	 98.757	 -0.631
46898	  0.062	  0.037	  0.757	  0.348	 -0.077	 -9.813	  0.026	  0.004	  0.003	 32.200	 98.757	 -0.631
46948	  0.063	  0.028	  0.757	  0.327	  0.018	 -9.817	 -0.037	  0.005	  0.004	 32.200	 98.735	  1.367
46998	  0.061	  0.030	  0.756	  0.356	  0.197	 -9.728	 -0.009	  0.004	  0.002	 32.200	 98.761	 -0.995
47048	  0.062	  0.028	  0.762	  0.336	  0.067	 -9.757	  0.018	 -0.000	  0.002	 32.200	 98.746	  0.368
47098	  0.062	  0.036	  0.756	  0.319	  0.027	 -9.826	 -0.012	  0.003	  0.004	 32.200	 98.746	  0.368
47148	  0.062	  0.031	  0.757	  0.335	  0.170	 -9.693	 -0.015	  0.003	  0.004	 32.200	 98.746	  0.368
47198	  0.063	  0.031	  0.755	  0.316	  0.101	 -9.766	  0.006	  0.003	  0.002	 32.200	 98.746	  0.368
47248	  0.063	  0.030	  0.748	  0.317	  0.062	 -9.764	 -0.005	  0.004	  0.002	 32.200	 98.768	 -1.630
47298	  0.064	  0.027	  0.760	  0.279	  0.144	 -9.719	 -0.010	  0.004	  0.004	 32.200	 98.746	  0.368
47348	  0.064	  0.032	  0.748	  0.269	  0.121	 -9.739	  0.000	  0.004	  0.002	 32.200	 98.746	  0.368
47398	  0.064	  0.027	  0.757	  0.330	  0.081	 -9.761	 -0.004	  0.003	  0.006	 32.200	 98.746	  0.368
47448	  0.059	  0.032	  0.755	  0.345	  0.080	 -9.749	 -0.007	  0.004	  0.004	 32.200	 98.757	 -0.631
47498	  0.064	  0.030	  0.756	  0.337	  0.090	 -9.747	 -0.002	  0.002	  0.005	 32.200	 98.757	 -0.631
47548	  0.063	  0.029	  0.759	  0.347	  0.085	 -9.787	 -0.004	  0.003	  0.002	 32.200	 98.746	  0.368
47598	  0.063	  0.030	  0.755	  0.325	  0.117	 -9.785	 -0.005	  0.003	  0.004	 32.200	 98.757	 -0.631
47648	  0.063	  0.027	  0.754	  0.287	  0.118	 -9.779	 -0.005	  0.003	  0.004	 32.200	 98.757	 -0.631
47698	  0.061	  0.033	  0.760	  0.298	  0.077	 -9.727	 -0.003	  0.002	  0.003	 32.200	 98.757	 -0.631
47748	  0.063	  0.037	  0.758	  0.312	  0.136	 -9.748	 -0.005	  0.004	  0.004	 32.200	 98.768	 -1.630
47798	  0.064	  0.033	  0.757	  0.330	  0.116	 -9.771	 -0.004	  0.003	  0.004	 32.200	 98.746	  0.368
47848	  0.065	  0.031	  0.756	  0.367	  0.046	 -9.869	 -0.004	  0.000	 -0.003	 32.200	 98.746	  0.368
47898	  0.065	  0.032	  0.753	  0.298	  0.142	 -9.731	 -0.003	  0.003	  0.004	 32.200	 98.757	 -0.631
47948	  0.061	  0.028	  0.756	  0.277	  0.118	 -9.769	 -0.003	  0.002	  0.002	 32.200	 98.746	  0.368
47998	  0.061	  0.033	  0.757	  0.270	  0.094	 -9.830	 -0.004	  0.004	  0.005	 32.200	 98.746	  0.368
48048	  0.063	  0.028	  0.758	  0.316	  0.079	 -9.808	 -0.005	  0.003	  0.005	 32.200	 98.757	 -0.631
48098	  0.062	  0.032	  0.755	  0.364	  0.070	 -9.726	 -0.003	  0.003	  0.005	 32.200	 98.757	 -0.631
48148	  0.065	  0.032	  0.758	  0.358	  0.090	 -9.764	 -0.003	  0.002	  0.003	 32.200	 98.746	  0.368
48198	  0.062	  0.026	  0.755	  0.319	  0.109	 -9.737	 -0.005	  0.003	  0.002	 32.200	 98.757	 -0.631
48248	  0.063	  0.028	  0.755	  0.306	  0.102	 -9.798	 -0.004	  0.003	  0.006	 32.200	 98.746	  0.368
48298	  0.062	  0.027	  0.756	  0.240	  0.167	 -9.648	  0.007	 -0.001	 -0.004	 32.200	 98.735	  1.367
48348	  0.065	  0.031	  0.754	  0.399	  0.119	 -9.565	  0.042	  0.003	 -0.009	 32.200	 98.746	  0.368
48398	  0.063	  0.030	  0.751	  0.288	  0.140	 -9.735	  0.075	  0.009	 -0.037	 32.200	 98.768	 -1.630
48448	  0.063	  0.036	  0.755	  0.210	  0.015	 -9.808	  0.104	  0.015	 -0.046	 32.200	 98.757	 -0.631
48498	  0.063	  0.041	  0.750	  0.306	 -0.106	 -9.801	  0.110	  0.005	 -0.062	 32.200	 98.746	  0.368
48548	  0.064	  0.040	  0.749	  0.156	  0.223	 -9.739	 -0.030	  0.011	  0.009	 32.200	 98.757	 -0.631
48598	  0.062	  0.034	  0.755	  0.220	  0.057	 -9.802	  0.020	  0.003	  0.005	 32.200	 98.746	  0.368
48648	  0.061	  0.046	  0.751	  0.346	 -0.226	 -9.814	 -0.021	  0.009	  0.006	 32.200	 98.746	  0.368
48698	  0.064	  0.046	  0.752	  0.249	 -0.374	 -9.881	 -0.054	  0.045	 -0.013	 32.200	 98.746	  0.368
48748	  0.061	  0.040	  0.749	  0.416	 -0.093	 -9.746	 -0.124	  0.010	  0.008	 32.200	 98.746	  0.368
48798	  0.063	  0.049	  0.755	  0.395	  0.166	 -9.605	 -0.050	  0.003	  0.045	 32.200	 98.746	  0.368
48848	  0.063	  0.036	  0.755	  0.214	  0.495	 -9.508	  0.090	 -0.033	  0.013	 32.200	 98.757	 -0.631
48898	  0.064	  0.043	  0.751	  0.200	 -0.353	 -10.053	  0.118	  0.019	 -0.019	 32.200	 98.746	  0.368
48948	  0.063	  0.040	  0.751	  0.149	 -0.220	 -10.026	 -0.098	  0.014	  0.008	 32.200	 98.746	  0.368
48998	  0.064	  0.037	  0.755	  0.139	 -0.032	 -9.824	 -0.188	  0.088	  0.012	 32.200	 98.746	  0.368
49048	  0.061	  0.035	  0.754	  0.391	  0.567	 -10.174	 -0.119	  0.052	  0.034	 32.200	 98.746	  0.368
49098	  0.059	  0.033	  0.752	  0.426	 -0.001	 -10.662	  0.026	 -0.002	  0.012	 32.200	 98.746	  0.368
49148	  0.059	  0.041	  0.752	  0.250	 -0.297	 -10.347	 -0.030	 -0.002	 -0.001	 32.200	 98.746	  0.368
49198	  0.062	  0.029	  0.750	  0.062	 -0.090	 -10.147	 -0.015	 -0.024	  0.385	 32.200	 98.753	 -0.267
49248	  0.062	  0.029	  0.750	  0.776	 -0.011	 -10.011	 -0.240	  0.097	  0.134	 32.200	 98.768	 -1.630
49298	  0.058	  0.024	  0.750	  0.607	  0.862	 -9.138	 -0.176	  0.004	  0.049	 32.200	 98.757	 -0.631
49348	  0.061	  0.016	  0.756	  0.653	  0.833	 -9.563	  0.092	 -0.046	  0.063	 32.200	 98.757	 -0.631
49398	  0.066	  0.027	  0.745	  0.310	  0.353	 -9.525	  0.256	 -0.072	  0.007	 32.200	 98.757	 -0.631
49448	  0.068	  0.045	  0.749	  0.474	 -0.785	 -10.049	  0.075	  0.039	 -0.070	 32.200	 98.746	  0.368
49498	  0.065	  0.031	  0.747	  0.242	 -0.051	 -9.195	 -0.102	 -0.001	 -0.030	 32.200	 98.753	 -0.267
49548	  0.065	  0.034	  0.741	  0.239	  0.427	 -9.540	  0.031	 -0.006	 -0.003	 32.200	 98.746	  0.368
49598	  0.068	  0.029	  0.747	  0.313	  0.486	 -9.362	 -0.022	  0.071	 -0.227	 32.200	 98.746	  0.368
49648	  0.066	  0.033	  0.744	  0.319	  0.214	 -9.621	  0.169	 -0.074	 -0.008	 32.200	 98.746	  0.368
49698	  0.063	  0.041	  0.747	  0.078	  0.091	 -9.716	  0.132	 -0.011	 -0.121	 32.200	 98.746	  0.368
49748	  0.068	  0.043	  0.748	  0.194	 -0.412	 -9.951	 -0.008	  0.005	  0.000	 32.200	 98.746	  0.368
49797	  0.068	  0.037	  0.748	  0.343	  0.058	 -9.690	 -0.084	  0.010	  0.001	 32.200	 98.757	 -0.631
49847	  0.063	  0.039	  0.750	  0.322	  0.103	 -9.613	 -0.012	  0.005	  0.005	 32.200	 98.757	 -0.631
49897	  0.067	  0.049	  0.750	  0.514	 -0.038	 -9.812	 -0.023	  0.003	 -0.013	 32.200	 98.757	 -0.631
49948	  0.062	  0.039	  0.744	  0.318	  0.030	 -9.775	 -0.024	  0.003	 -0.005	 32.200	 98.768	 -1.630
49998	  0.064	  0.043	  0.750	  0.467	  0.092	 -9.719	 -0.030	  0.024	 -0.009	 32.200	 98.746	  0.368
50047	  0.065	  0.051	  0.752	  0.524	  0.155	 -9.544	  0.023	  0.018	  0.003	 32.200	 98.746	  0.368
50097	  0.064	  0.039	  0.748	  0.452	 -0.280	 -9.891	 -0.011	  0.003	 -0.013	 32.200	 98.746	  0.368
50147	  0.066	  0.036	  0.749	  0.220	  0.112	 -9.759	 -0.026	  0.011	  0.002	 32.200	 98.746	  0.368
50197	  0.065	  0.034	  0.750	  0.211	  0.035	 -9.934	 -0.004	  0.013	  0.002	 32.200	 98.746	  0.368
50248	  0.065	  0.033	  0.750	  0.270	  0.045	 -9.675	 -0.017	  0.006	  0.006	 32.200	 98.757	 -0.631
50297	  0.065	  0.035	  0.753	  0.156	  0.016	 -9.923	 -0.009	  0.003	  0.002	 32.200	 98.746	  0.368
50347	  0.065	  0.037	  0.745	  0.757	 -0.625	 -9.318	  0.091	  0.015	 -0.032	 32.200	 98.746	  0.368
50397	  0.066	  0.041	  0.749	  0.246	  0.319	 -9.725	 -0.116	  0.027	 -0.064	 32.200	 98.746	  0.368
50447	  0.065	  0.032	  0.754	  0.485	  0.427	 -9.609	  0.009	 -0.010	  0.048	 32.200	 98.746	  0.368
50498	  0.064	  0.035	  0.754	  0.527	 -0.233	 -9.761	  0.069	 -0.019	 -0.047	 32.200	 98.757	 -0.631
50548	  0.064	  0.035	  0.754	  0.097	 -0.036	 -9.955	 -0.063	 -0.005	 -0.087	 32.200	 98.757	 -0.631
50598	  0.064	  0.035	  0.748	  0.543	  0.456	 -9.528	 -0.015	  0.002	  0.007	 32.200	 98.750	  0.005
50647	  0.063	  0.035	  0.757	  0.392	 -0.110	 -9.775	  0.047	  0.003	  0.003	 32.200	 98.746	  0.368
50698	  0.063	  0.036	  0.752	  0.405	 -0.041	 -9.768	 -0.047	  0.002	  0.004	 32.200	 98.757	 -0.631
50748	  0.064	  0.036	  0.755	  0.449	  0.154	 -9.790	 -0.015	  0.002	 -0.001	 32.200	 98.746	  0.368
50798	  0.063	  0.035	  0.750	  0.416	  0.067	 -9.796	  0.022	 -0.003	  0.001	 32.200	 98.746	  0.368
50848	  0.064	  0.034	  0.753	  0.480	 -0.107	 -9.670	 -0.015	  0.010	 -0.004	 32.200	 98.735	  1.367
50898	  0.062	  0.033	  0.752	  0.651	  0.056	 -9.947	 -0.035	 -0.004	 -0.012	 32.200	 98.742	  0.732
50948	  0.064	  0.036	  0.754	  0.270	  0.190	 -10.037	 -0.087	  0.008	  0.040	 32.200	 98.746	  0.368
50998	  0.064	  0.034	  0.750	  1.275	  0.541	 -11.492	 -0.147	  0.101	 -0.208	 32.200	 98.768	 -1.630
51048	  0.063	  0.032	  0.754	  1.210	  0.534	 -9.011	  0.069	 -0.081	  0.068	 32.200	 98.735	  1.367
51098	  0.066	  0.037	  0.745	  0.178	  0.022	 -9.694	  0.113	 -0.022	 -0.070	 32.200	 98.746	  0.368
51148	  0.064	  0.034	  0.753	  1.065	 -0.139	 -9.736	 -0.046	 -0.116	  0.070	 32.200	 99.029	 -25.299
51198	  0.063	  0.039	  0.754	  0.448	  0.144	 -10.025	 -0.017	 -0.023	  0.032	 32.200	 98.927	 -16.058
51248	  0.067	  0.035	  0.751	  0.249	  0.096	 -9.666	 -0.007	  0.002	  0.001	 32.200	 98.927	 -16.058
51298	  0.063	  0.039	  0.754	  0.233	  0.133	 -9.736	 -0.017	  0.005	  0.008	 32.200	 98.870	 -10.889
51348	  0.064	  0.036	  0.754	  0.350	  0.078	 -9.857	  0.007	 -0.003	  0.006	 32.200	 98.814	 -5.807
51398	  0.067	  0.045	  0.754	  0.092	  0.309	 -9.376	 -0.034	 -0.010	  0.017	 32.200	 98.746	  0.368
51448	  0.065	  0.035	  0.753	  0.280	  0.085	 -9.622	  0.010	  0.006	  0.007	 32.200	 98.723	  2.458
51498	  0.066	  0.033	  0.755	  0.379	  0.124	 -9.828	 -0.007	  0.001	  0.003	 32.200	 98.723	  2.458
51548	  0.064	  0.042	  0.754	  0.342	  0.085	 -9.819	 -0.006	 -0.001	  0.004	 32.200	 98.712	  3.458
51598	  0.067	  0.035	  0.756	  0.369	  0.145	 -9.749	 -0.002	 -0.001	  0.009	 32.200	 98.735	  1.367
51648	  0.067	  0.034	  0.756	  0.221	  0.066	 -9.940	 -0.014	  0.008	  0.003	 32.200	 98.746	  0.368
51698	  0.067	  0.039	  0.749	  0.304	  0.150	 -9.761	 -0.011	  0.003	  0.016	 32.200	 98.735	  1.367
51748	  0.067	  0.039	  0.754	 -0.879	 -0.049	 -10.988	  0.048	 -0.048	  0.055	 32.200	 98.746	  0.368
51798	  0.066	  0.036	  0.753	  0.419	 -0.670	 -11.529	 -0.118	 -0.025	  0.144	 32.200	 98.916	 -15.061
51848	  0.067	  0.031	  0.751	  0.558	 -0.060	 -9.658	  0.022	 -0.117	  0.234	 32.200	 99.017	 -24.212
51898	  0.067	  0.035	  0.753	  0.818	  0.221	 -9.589	 -0.033	  0.012	  0.026	 32.200	 99.164	 -37.512
51948	  0.066	  0.024	  0.753	  0.558	 -0.033	 -9.671	  0.007	  0.014	  0.013	 32.200	 99.323	 -51.870
51998	  0.066	  0.032	  0.745	  0.410	  0.123	 -9.719	 -0.001	  0.003	  0.006	 32.200	 99.391	 -58.004
52048	  0.067	  0.034	  0.751	  0.928	 -0.106	 -9.590	  0.028	  0.008	 -0.069	 32.200	 99.572	 -74.303
52098	  0.066	  0.034	  0.749	  0.653	  0.000	 -10.058	 -0.027	 -0.006	 -0.236	 32.200	 99.673	 -83.383
52148	  0.066	  0.031	  0.749	  0.794	  0.220	 -9.715	 -0.021	  0.018	 -0.217	 32.200	 99.662	 -82.395
52198	  0.065	  0.033	  0.754	  0.441	  0.060	 -9.757	 -0.005	 -0.012	 -0.042	 32.200	 99.640	 -80.417
52248	  0.064	  0.034	  0.755	  0.900	  0.283	 -9.464	 -0.041	  0.017	 -0.015	 32.200	 99.621	 -78.709
52298	  0.064	  0.033	  0.752	  0.267	 -1.216	 -10.328	  0.003	  0.059	 -0.326	 32.200	 99.606	 -77.361
52348	  0.060	  0.048	  0.756	  0.368	  0.378	 -10.154	 -0.027	 -0.142	 -0.112	 32.200	 99.583	 -75.292
52398	  0.061	  0.045	  0.755	  0.606	  0.419	 -9.739	  0.071	 -0.002	  0.008	 32.200	 99.549	 -72.234
52448	  0.060	  0.043	  0.751	  0.411	  0.487	 -9.599	 -0.033	  0.004	  0.002	 32.200	 99.526	 -70.164
52498	  0.060	  0.050	  0.757	  0.739	  0.383	 -9.607	 -0.008	  0.009	 -0.003	 32.200	 99.492	 -67.104
52548	  0.059	  0.050	  0.754	  0.521	  0.176	 -9.850	 -0.010	  0.029	 -0.104	 32.200	 99.481	 -66.113
52598	  0.060	  0.042	  0.755	  0.487	  0.364	 -9.543	 -0.004	 -0.014	 -0.115	 32.200	 99.459	 -64.131
52648	  0.058	  0.044	  0.754	  0.511	  0.353	 -9.808	 -0.000	  0.031	 -0.125	 32.200	 99.425	 -61.069
52698	  0.058	  0.040	  0.752	 -0.193	  0.025	 -9.935	 -0.013	  0.007	  0.002	 32.200	 99.395	 -58.364
52748	  0.060	  0.040	  0.752	  0.181	  0.124	 -9.792	 -0.008	  0.006	  0.000	 32.200	 99.368	 -55.930
52798	  0.055	  0.042	  0.758	  0.396	  0.187	 -9.780	 -0.006	  0.004	 -0.001	 32.200	 99.368	 -55.930
52848	  0.058	  0.039	  0.754	  0.366	  0.169	 -9.767	 -0.004	 -0.001	  0.001	 32.200	 99.323	 -51.870
52898	  0.059	  0.044	  0.752	  0.331	  0.138	 -9.756	 -0.006	  0.003	  0.000	 32.200	 99.311	 -50.788
52948	  0.061	  0.046	  0.752	  0.346	  0.163	 -9.753	 -0.004	 -0.001	  0.004	 32.200	 99.289	 -48.802
52998	  0.059	  0.049	  0.752	  0.289	  0.136	 -9.791	 -0.005	  0.002	  0.002	 32.200	 99.278	 -47.810
53048	  0.058	  0.041	  0.753	  0.328	  0.141	 -9.770	 -0.004	  0.002	  0.004	 32.200	 99.255	 -45.733
53098	  0.059	  0.044	  0.747	  0.426	  0.205	 -9.747	 -0.002	 -0.000	  0.001	 32.200	 99.244	 -44.740
53148	  0.057	  0.041	  0.756	  0.320	  0.149	 -9.757	 -0.010	  0.009	  0.003	 32.200	 99.221	 -42.663
53198	  0.058	  0.043	  0.744	  0.262	  0.138	 -9.759	 -0.002	 -0.000	 -0.002	 32.200	 99.198	 -40.585
53248	  0.059	  0.043	  0.751	  0.375	  0.161	 -9.670	 -0.004	  0.002	  0.000	 32.200	 99.187	 -39.590
53298	  0.058	  0.040	  0.752	  0.281	  0.204	 -9.737	 -0.005	  0.001	  0.006	 32.200	 99.164	 -37.512
53348	  0.058	  0.040	  0.753	  0.341	  0.185	 -9.803	 -0.004	  0.002	  0.004	 32.200	 99.153	 -36.517
53398	  0.058	  0.049	  0.754	  0.331	  0.144	 -9.725	 -0.005	  0.001	  0.003	 32.200	 99.142	 -35.523
53448	  0.058	  0.044	  0.752	  0.439	  0.178	 -9.677	 -0.003	  0.002	  0.000	 32.200	 99.119	 -33.444
53498	  0.056	  0.044	  0.753	  0.358	  0.133	 -9.709	 -0.003	  0.002	  0.003	 32.200	 99.108	 -32.448
53548	  0.058	  0.051	  0.753	  0.285	  0.194	 -9.754	 -0.004	  0.003	  0.004	 32.200	 99.097	 -31.453
53598	  0.060	  0.046	  0.753	  0.292	  0.154	 -9.758	 -0.004	  0.004	  0.004	 32.200	 99.074	 -29.371
53648	  0.060	  0.042	  0.750	  0.346	  0.176	 -9.741	 -0.003	  0.004	  0.005	 32.200	 99.063	 -28.376
53698	  0.059	  0.040	  0.751	  0.337	  0.181	 -9.767	 -0.003	  0.001	  0.003	 32.200	 99.063	 -28.376
53748	  0.057	  0.045	  0.747	  0.289	  0.176	 -9.771	 -0.006	  0.003	  0.001	 32.200	 99.040	 -26.294
53798	  0.056	  0.040	  0.758	  0.295	  0.197	 -9.781	 -0.005	  0.003	  0.003	 32.200	 99.036	 -25.933
53848	  0.058	  0.047	  0.747	  0.270	  0.158	 -9.808	 -0.004	  0.004	  0.005	 32.200	 99.029	 -25.299
53898	  0.060	  0.044	  0.752	  0.289	  0.117	 -9.759	 -0.002	  0.005	  0.005	 32.200	 99.017	 -24.212
53948	  0.058	  0.045	  0.745	  0.340	  0.164	 -9.723	 -0.000	  0.004	  0.003	 32.200	 98.995	 -22.220
53998	  0.060	  0.044	  0.752	  0.352	  0.201	 -9.780	 -0.002	  0.002	  0.006	 32.200	 98.983	 -21.132
54048	  0.059	  0.041	  0.748	  0.322	  0.199	 -9.749	 -0.004	  0.004	  0.002	 32.200	 98.961	 -19.139
54098	  0.059	  0.042	  0.754	  0.353	  0.193	 -9.753	 -0.005	  0.001	  0.004	 32.200	 98.893	 -12.975
54148	  0.059	  0.041	  0.747	  0.312	  0.164	 -9.756	 -0.007	  0.002	  0.004	 32.200	 98.825	 -6.805
54198	  0.060	  0.042	  0.755	  0.340	  0.168	 -9.743	 -0.005	  0.002	  0.004	 32.200	 98.667	  7.549
54248	  0.058	  0.044	  0.751	  0.339	  0.131	 -9.764	 -0.005	  0.001	  0.003	 32.200	 98.508	 22.021
54298	  0.059	  0.046	  0.749	  0.321	  0.180	 -9.750	 -0.004	  0.003	  0.004	 32.200	 98.316	 39.536
54348	  0.058	  0.042	  0.756	  0.283	  0.159	 -9.759	 -0.004	  0.003	  0.005	 32.200	 98.124	 57.091
54398	  0.058	  0.048	  0.753	  0.340	  0.181	 -9.732	 -0.003	  0.004	  0.005	 32.200	 97.897	 77.898
54448	  0.056	  0.038	  0.753	  0.332	  0.165	 -9.764	 -0.004	  0.001	  0.006	 32.200	 97.682	 97.659
54498	  0.060	  0.043	  0.751	  0.372	  0.188	 -9.769	 -0.006	  0.004	  0.005	 32.200	 97.490	 115.349
54548	  0.056	  0.052	  0.758	  0.347	  0.162	 -9.742	 -0.003	  0.001	  0.005	 32.200	 97.286	 134.191
54598	  0.058	  0.041	  0.754	  0.357	  0.149	 -9.787	 -0.004	  0.002	  0.003	 32.200	 97.072	 154.007
54648	  0.060	  0.047	  0.752	  0.305	  0.169	 -9.736	 -0.003	  0.002	  0.003	 32.200	 96.891	 170.809
54697	  0.059	  0.041	  0.752	  0.315	  0.167	 -9.749	 -0.004	  0.003	  0.004	 32.200	 96.676	 190.813
54747	  0.059	  0.043	  0.748	  0.305	  0.171	 -9.775	 -0.005	  0.001	  0.004	 32.200	 96.495	 207.697
54797	  0.056	  0.044	  0.750	  0.351	  0.153	 -9.764	 -0.003	  0.004	  0.003	 32.200	 96.314	 224.617
54848	  0.058	  0.042	  0.753	  0.335	  0.159	 -9.734	 -0.004	  0.001	  0.004	 32.200	 96.121	 242.702
54897	  0.060	  0.052	  0.756	  0.301	  0.151	 -9.790	 -0.003	  0.004	  0.002	 32.200	 95.929	 260.735
54947	  0.058	  0.042	  0.751	  0.307	  0.159	 -9.798	 -0.002	  0.003	  0.003	 32.200	 95.748	 277.775
54997	  0.059	  0.043	  0.753	  0.309	  0.117	 -9.731	  0.001	  0.004	  0.003	 32.200	 95.590	 292.681
55047	  0.056	  0.045	  0.753	  0.312	  0.167	 -9.730	 -0.000	  0.004	  0.003	 32.200	 95.420	 308.752
55097	  0.057	  0.041	  0.752	  0.330	  0.165	 -9.763	 -0.003	  0.003	  0.004	 32.200	 95.250	 324.857
55147	  0.059	  0.042	  0.751	  0.359	  0.092	 -9.775	 -0.007	  0.002	  0.004	 32.200	 95.080	 340.996
55197	  0.059	  0.046	  0.753	  0.361	  0.168	 -9.769	 -0.002	  0.001	  0.003	 32.200	 94.922	 356.028
55247	  0.059	  0.045	  0.752	  0.317	  0.183	 -9.754	 -0.005	  0.001	  0.004	 32.200	 94.756	 371.852
55297	  0.058	  0.041	  0.752	  0.302	  0.159	 -9.741	 -0.003	  0.003	  0.003	 32.200	 94.594	 387.326
55347	  0.060	  0.041	  0.750	  0.314	  0.149	 -9.752	 -0.004	  0.004	  0.005	 32.200	 94.413	 404.653
55397	  0.054	  0.039	  0.754	  0.376	  0.167	 -9.764	 -0.002	  0.007	  0.004	 32.200	 94.255	 419.811
55447	  0.080	  0.047	  0.745	  0.353	  0.081	 -9.904	 -0.006	  0.003	  0.003	 32.200	 94.074	 437.212
55497	  0.067	  0.050	  0.750	  0.343	  0.175	 -9.713	 -0.004	  0.001	  0.003	 32.200	 93.908	 453.206
55547	  0.063	  0.048	  0.743	  0.295	  0.157	 -9.742	 -0.006	  0.004	  0.003	 32.200	 93.738	 469.621
55597	  0.060	  0.051	  0.748	  0.313	  0.149	 -9.725	 -0.003	  0.001	  0.004	 32.200	 93.580	 484.908
55647	  0.061	  0.042	  0.753	  0.320	  0.151	 -9.716	 -0.002	  0.003	  0.003	 32.200	 93.384	 503.915
55697	  0.065	  0.048	  0.747	  0.325	  0.154	 -9.758	 -0.003	  0.002	  0.004	 32.200	 93.229	 518.981
55747	  0.061	  0.046	  0.750	  0.321	  0.155	 -9.787	 -0.004	  0.004	  0.004	 32.200	 93.055	 535.927
55797	  0.063	  0.051	  0.751	  0.330	  0.165	 -9.734	 -0.004	 -0.000	  0.004	 32.200	 92.897	 551.349
55847	  0.065	  0.053	  0.750	  0.286	  0.145	 -9.717	 -0.004	  0.003	  0.004	 32.200	 92.709	 569.740
55897	  0.064	  0.050	  0.754	  0.319	  0.162	 -9.704	 -0.005	  0.004	  0.004	 32.200	 92.546	 585.721
55947	  0.061	  0.045	  0.746	  0.363	  0.142	 -9.741	 -0.004	  0.004	  0.005	 32.200	 92.365	 603.506
55997	  0.063	  0.053	  0.749	  0.349	  0.129	 -9.764	 -0.003	  0.004	  0.005	 32.200	 92.218	 617.980
56048	  0.064	  0.058	  0.753	  0.337	  0.135	 -9.745	 -0.005	  0.004	  0.002	 32.200	 92.037	 635.841
56097	  0.063	  0.057	  0.751	  0.311	  0.145	 -9.751	 -0.003	  0.002	  0.004	 32.200	 91.856	 653.743
56147	  0.063	  0.047	  0.743	  0.322	  0.173	 -9.770	 -0.004	  0.003	  0.003	 32.200	 91.698	 669.405
56197	  0.064	  0.052	  0.743	  0.314	  0.175	 -9.763	 -0.003	  0.004	  0.004	 32.200	 91.528	 686.292
56248	  0.064	  0.045	  0.749	  0.352	  0.164	 -9.760	 -0.004	  0.003	  0.005	 32.200	 91.370	 702.021
56298	  0.063	  0.048	  0.753	  0.319	  0.172	 -9.792	 -0.003	  0.000	  0.003	 32.200	 91.193	 719.679
56348	  0.063	  0.045	  0.747	  0.310	  0.136	 -9.791	 -0.004	  0.003	  0.002	 32.200	 91.034	 735.578
56398	  0.064	  0.057	  0.750	  0.315	  0.157	 -9.757	 -0.004	  0.003	  0.004	 32.200	 90.865	 752.512
56448	  0.062	  0.044	  0.751	  0.306	  0.150	 -9.769	 -0.005	  0.004	  0.003	 32.200	 90.680	 771.091
56498	  0.062	  0.049	  0.746	  0.304	  0.173	 -9.763	 -0.005	  0.002	  0.004	 32.200	 90.533	 785.888
56548	  0.062	  0.047	  0.750	  0.334	  0.138	 -9.758	 -0.004	  0.003	  0.004	 32.200	 90.378	 801.520
56598	  0.061	  0.049	  0.747	  0.351	  0.157	 -9.752	 -0.003	  0.003	  0.003	 32.200	 90.208	 818.701
56648	  0.063	  0.047	  0.749	  0.321	  0.130	 -9.782	 -0.003	  0.004	  0.002	 32.200	 90.061	 833.590
56698	  0.064	  0.048	  0.750	  0.282	  0.173	 -9.756	 -0.002	  0.003	  0.003	 32.200	 89.899	 850.030
56748	  0.064	  0.046	  0.743	  0.312	  0.158	 -9.772	 -0.004	  0.002	  0.004	 32.200	 89.752	 864.979
56798	  0.062	  0.049	  0.750	  0.337	  0.163	 -9.779	 -0.004	  0.004	  0.004	 32.200	 89.620	 878.428
56848	  0.062	  0.045	  0.753	  0.299	  0.160	 -9.727	 -0.004	  0.002	  0.003	 32.200	 89.484	 892.309
56898	  0.063	  0.055	  0.747	  0.333	  0.154	 -9.792	 -0.005	  0.004	  0.002	 32.200	 89.349	 906.113
56948	  0.063	  0.056	  0.755	  0.323	  0.161	 -9.784	 -0.004	  0.002	  0.003	 32.200	 89.236	 917.686
56998	  0.063	  0.049	  0.749	  0.293	  0.168	 -9.754	 -0.005	  0.004	  0.003	 32.200	 89.111	 930.509
57048	  0.062	  0.049	  0.744	  0.308	  0.136	 -9.767	 -0.003	  0.002	  0.005	 32.200	 89.009	 940.988
57098	  0.062	  0.047	  0.749	  0.320	  0.140	 -9.751	 -0.004	  0.004	  0.004	 32.200	 88.896	 952.614
57148	  0.064	  0.046	  0.750	  0.322	  0.145	 -9.786	 -0.004	  0.002	  0.005	 32.200	 88.791	 963.433
57198	  0.062	  0.044	  0.750	  0.314	  0.153	 -9.772	 -0.004	  0.001	  0.004	 32.200	 88.689	 973.957
57248	  0.061	  0.049	  0.752	  0.311	  0.159	 -9.778	 -0.003	  0.003	  0.003	 32.200	 88.602	 982.945
57298	  0.064	  0.049	  0.747	  0.326	  0.152	 -9.742	 -0.004	  0.003	  0.002	 32.200	 88.512	 992.254
57348	  0.062	  0.046	  0.752	  0.333	  0.176	 -9.761	 -0.003	  0.001	  0.005	 32.200	 88.406	 1003.232
57398	  0.065	  0.047	  0.750	  0.326	  0.125	 -9.770	 -0.005	  0.004	  0.004	 32.200	 88.323	 1011.840
57448	  0.064	  0.048	  0.749	  0.331	  0.163	 -9.770	 -0.004	  0.002	  0.003	 32.200	 88.229	 1021.599
57498	  0.065	  0.052	  0.752	  0.304	  0.150	 -9.824	 -0.004	  0.003	  0.004	 32.200	 88.138	 1031.059
57548	  0.063	  0.050	  0.748	  0.314	  0.169	 -9.767	 -0.005	  0.003	  0.003	 32.200	 88.025	 1042.822
57598	  0.063	  0.046	  0.751	  0.291	  0.164	 -9.756	 -0.004	  0.004	  0.004	 32.200	 87.919	 1053.873
57648	  0.063	  0.049	  0.746	  0.345	  0.169	 -9.784	 -0.004	  0.002	  0.005	 32.200	 87.829	 1063.268
57698	  0.063	  0.050	  0.753	  0.319	  0.160	 -9.766	 -0.003	  0.003	  0.003	 32.200	 87.731	 1073.511
57748	  0.062	  0.046	  0.750	  0.351	  0.188	 -9.745	 -0.003	  0.002	  0.003	 32.200	 87.606	 1086.596
57798	  0.064	  0.045	  0.751	  0.321	  0.148	 -9.806	 -0.004	  0.003	  0.003	 32.200	 87.490	 1098.760
57848	  0.061	  0.046	  0.755	  0.337	  0.182	 -9.781	 -0.003	  0.002	  0.003	 32.200	 87.391	 1109.155
57898	  0.062	  0.046	  0.753	  0.303	  0.157	 -9.751	 -0.003	  0.003	  0.003	 32.200	 87.263	 1122.617
57948	  0.061	  0.044	  0.751	  0.346	  0.160	 -9.750	 -0.003	  0.004	  0.005	 32.200	 87.162	 1133.256
57998	  0.061	  0.045	  0.752	  0.368	  0.140	 -9.687	 -0.005	 -0.000	  0.006	 32.200	 87.026	 1147.605
58048	  0.062	  0.049	  0.749	  0.362	  0.087	 -9.770	 -0.005	  0.002	  0.004	 32.200	 86.913	 1159.547
58098	  0.063	  0.049	  0.752	  0.357	  0.122	 -9.795	 -0.004	  0.003	  0.003	 32.200	 86.781	 1173.521
58148	  0.064	  0.050	  0.752	  0.319	  0.133	 -9.787	 -0.005	  0.003	  0.003	 32.200	 86.656	 1186.778
58198	  0.062	  0.047	  0.749	  0.339	  0.144	 -9.760	 -0.004	  0.002	  0.004	 32.200	 86.532	 1199.950
58248	  0.063	  0.052	  0.752	  0.317	  0.143	 -9.745	 -0.003	  0.004	  0.004	 32.200	 86.441	 1209.631
58298	  0.063	  0.054	  0.747	  0.326	  0.148	 -9.768	 -0.003	  0.002	  0.005	 32.200	 86.339	 1220.498
58348	  0.060	  0.051	  0.752	  0.336	  0.158	 -9.752	 -0.004	  0.003	  0.003	 32.200	 86.271	 1227.750
58398	  0.061	  0.047	  0.749	  0.327	  0.171	 -9.792	 -0.003	  0.003	  0.003	 32.200	 86.181	 1237.359
58448	  0.063	  0.045	  0.751	  0.340	  0.149	 -9.768	 -0.005	  0.003	  0.004	 32.200	 86.102	 1245.804
58498	  0.062	  0.046	  0.741	  0.305	  0.209	 -9.755	 -0.002	  0.003	  0.003	 32.200	 86.034	 1253.081
58548	  0.064	  0.047	  0.752	  0.288	  0.138	 -9.733	 -0.003	  0.002	  0.003	 32.200	 85.955	 1261.542
58598	  0.063	  0.047	  0.751	  0.348	  0.192	 -9.753	 -0.006	  0.003	  0.004	 32.200	 85.887	 1268.833
58648	  0.062	  0.049	  0.751	  0.332	  0.143	 -9.782	 -0.004	  0.001	  0.004	 32.200	 85.819	 1276.131
58698	  0.065	  0.054	  0.751	  0.319	  0.153	 -9.771	 -0.004	  0.004	  0.002	 32.200	 85.740	 1284.619
58748	  0.061	  0.046	  0.748	  0.286	  0.130	 -9.789	 -0.004	  0.002	  0.004	 32.200	 85.661	 1293.115
58798	  0.061	  0.050	  0.748	  0.312	  0.164	 -9.769	 -0.004	  0.003	  0.005	 32.200	 85.581	 1301.729
58848	  0.064	  0.043	  0.748	  0.322	  0.144	 -9.716	 -0.004	  0.003	  0.004	 32.200	 85.502	 1310.244
58898	  0.062	  0.045	  0.751	  0.304	  0.161	 -9.735	 -0.005	  0.002	  0.005	 32.200	 85.434	 1317.582
58948	  0.062	  0.046	  0.749	  0.308	  0.153	 -9.770	 -0.004	  0.003	  0.004	 32.200	 85.344	 1327.303
58998	  0.063	  0.048	  0.748	  0.353	  0.160	 -9.757	 -0.005	  0.003	 -0.000	 32.200	 85.265	 1335.847
59048	  0.062	  0.053	  0.751	  0.318	  0.167	 -9.748	 -0.003	  0.002	  0.004	 32.200	 85.185	 1344.509
59098	  0.060	  0.044	  0.751	  0.335	  0.156	 -9.747	 -0.005	  0.003	  0.004	 32.200	 85.095	 1354.264
59148	  0.064	  0.045	  0.748	  0.319	  0.141	 -9.757	 -0.003	  0.004	  0.005	 32.200	 85.016	 1362.838
59198	  0.060	  0.050	  0.750	  0.341	  0.156	 -9.774	 -0.004	  0.003	  0.002	 32.200	 84.925	 1372.725
59248	  0.061	  0.050	  0.746	  0.318	  0.157	 -9.776	 -0.003	  0.002	  0.004	 32.200	 84.835	 1382.516
59298	  0.064	  0.048	  0.752	  0.290	  0.152	 -9.818	 -0.004	  0.002	  0.003	 32.200	 84.733	 1393.627
59348	  0.062	  0.046	  0.751	  0.283	  0.157	 -9.776	 -0.004	  0.004	  0.004	 32.200	 84.627	 1405.192
59398	  0.065	  0.045	  0.751	  0.307	  0.149	 -9.763	 -0.004	  0.003	  0.005	 32.200	 84.541	 1414.587
59448	  0.063	  0.044	  0.751	  0.345	  0.141	 -9.742	 -0.004	  0.003	  0.006	 32.200	 84.435	 1426.182
59498	  0.062	  0.047	  0.749	  0.328	  0.137	 -9.746	 -0.005	  0.002	  0.003	 32.200	 84.337	 1436.918
59548	  0.060	  0.044	  0.752	  0.338	  0.128	 -9.779	 -0.003	  0.003	  0.004	 32.200	 84.246	 1446.900
59598	  0.063	  0.050	  0.748	  0.292	  0.141	 -9.768	 -0.004	  0.002	  0.002	 32.200	 84.133	 1459.314
59648	  0.065	  0.049	  0.754	  0.299	  0.148	 -9.759	 -0.004	  0.002	  0.004	 32.200	 84.043	 1469.215
59698	  0.064	  0.054	  0.751	  0.343	  0.136	 -9.774	 -0.004	  0.003	  0.004	 32.200	 83.918	 1482.988
59748	  0.063	  0.048	  0.750	  0.332	  0.160	 -9.813	 -0.004	  0.003	  0.004	 32.200	 83.817	 1494.133
59798	  0.064	  0.046	  0.749	  0.336	  0.144	 -9.784	 -0.006	  0.002	  0.003	 32.200	 83.703	 1506.733
59848	  0.063	  0.045	  0.750	  0.299	  0.168	 -9.767	 -0.003	  0.004	  0.003	 32.200	 83.602	 1517.915
59898	  0.059	  0.050	  0.752	  0.304	  0.148	 -9.746	 -0.004	  0.003	  0.003	 32.200	 83.488	 1530.552
59948	  0.065	  0.045	  0.750	  0.312	  0.170	 -9.764	 -0.003	  0.003	  0.005	 32.200	 83.387	 1541.767
59998	  0.064	  0.047	  0.751	  0.328	  0.155	 -9.770	 -0.004	  0.004	  0.006	 32.200	 83.251	 1556.894
60048	  0.061	  0.047	  0.751	  0.355	  0.175	 -9.743	 -0.005	  0.002	  0.004	 32.200	 83.149	 1568.257
60098	  0.062	  0.048	  0.753	  0.326	  0.155	 -9.771	 -0.002	  0.002	  0.004	 32.200	 83.013	 1583.435
60148	  0.063	  0.053	  0.750	  0.333	  0.162	 -9.797	 -0.004	  0.002	  0.003	 32.200	 82.923	 1593.496
60198	  0.065	  0.044	  0.752	  0.296	  0.150	 -9.782	 -0.003	  0.001	  0.005	 32.200	 82.776	 1609.956
60248	  0.063	  0.045	  0.748	  0.327	  0.153	 -9.734	 -0.004	  0.003	  0.004	 32.200	 82.674	 1621.397
60298	  0.063	  0.047	  0.751	  0.316	  0.129	 -9.736	 -0.004	  0.002	  0.005	 32.200	 82.527	 1637.917
60348	  0.063	  0.049	  0.749	  0.326	  0.167	 -9.786	 -0.005	  0.004	  0.004	 32.200	 82.402	 1651.991
60398	  0.063	  0.045	  0.750	  0.330	  0.158	 -9.825	 -0.003	  0.002	  0.003	 32.200	 82.281	 1665.640
60448	  0.063	  0.044	  0.752	  0.332	  0.150	 -9.792	 -0.004	  0.003	  0.001	 32.200	 82.153	 1680.104
60498	  0.064	  0.054	  0.756	  0.318	  0.172	 -9.763	 -0.004	  0.001	  0.005	 32.200	 82.029	 1694.141
60548	  0.063	  0.049	  0.751	  0.313	  0.129	 -9.783	 -0.005	  0.002	  0.004	 32.200	 81.893	 1709.567
60598	  0.061	  0.049	  0.746	  0.358	  0.138	 -9.728	 -0.004	  0.002	  0.006	 32.200	 81.769	 1723.658
60648	  0.063	  0.048	  0.750	  0.309	  0.129	 -9.779	 -0.004	  0.002	  0.002	 32.200	 81.641	 1738.230
60698	  0.063	  0.056	  0.750	  0.323	  0.196	 -9.790	 -0.000	  0.003	  0.004	 32.200	 81.509	 1753.286
60748	  0.064	  0.051	  0.753	  0.313	  0.141	 -9.745	 -0.002	  0.005	  0.003	 32.200	 81.384	 1767.569
60798	  0.061	  0.058	  0.749	  0.297	  0.169	 -9.790	 -0.002	  0.002	  0.005	 32.200	 81.241	 1783.944
60848	  0.065	  0.045	  0.752	  0.310	  0.128	 -9.796	 -0.005	  0.002	  0.005	 32.200	 81.113	 1798.629
60898	  0.064	  0.053	  0.744	  0.348	  0.155	 -9.760	 -0.003	  0.001	  0.006	 32.200	 80.966	 1815.527
60948	  0.062	  0.051	  0.747	  0.328	  0.132	 -9.729	 -0.003	  0.004	  0.004	 32.200	 80.819	 1832.463
60998	  0.063	  0.046	  0.748	  0.338	  0.162	 -9.779	 -0.005	  0.002	  0.004	 32.200	 80.705	 1845.622
61048	  0.062	  0.045	  0.750	  0.311	  0.127	 -9.769	 -0.005	  0.003	  0.003	 32.200	 80.570	 1861.233
61098	  0.063	  0.044	  0.750	  0.307	  0.180	 -9.785	 -0.004	  0.004	  0.004	 32.200	 80.423	 1878.268
61148	  0.062	  0.046	  0.752	  0.333	  0.124	 -9.788	 -0.004	  0.002	  0.005	 32.200	 80.302	 1892.318
61198	  0.063	  0.046	  0.751	  0.340	  0.146	 -9.747	 -0.005	  0.003	  0.004	 32.200	 80.140	 1911.167
61248	  0.065	  0.048	  0.751	  0.304	  0.123	 -9.762	 -0.002	  0.002	  0.004	 32.200	 80.027	 1924.343
61298	  0.064	  0.053	  0.751	  0.318	  0.142	 -9.804	 -0.004	  0.003	  0.003	 32.200	 79.872	 1942.451
61348	  0.063	  0.045	  0.746	  0.287	  0.148	 -9.752	 -0.004	  0.002	  0.004	 32.200	 79.744	 1957.436
61398	  0.062	  0.048	  0.752	  0.319	  0.174	 -9.765	 -0.004	  0.004	  0.005	 32.200	 79.608	 1973.390
61449	  0.063	  0.047	  0.746	  0.350	  0.165	 -9.781	 -0.003	  0.002	  0.005	 32.200	 79.461	 1990.671
61498	  0.063	  0.044	  0.751	  0.345	  0.140	 -9.723	 -0.004	  0.003	  0.004	 32.200	 79.329	 2006.220
61548	  0.061	  0.049	  0.751	  0.332	  0.140	 -9.721	 -0.003	  0.003	  0.005	 32.200	 79.201	 2021.328
61598	  0.064	  0.053	  0.751	  0.327	  0.139	 -9.742	 -0.003	  0.005	  0.004	 32.200	 79.057	 2038.360
61648	  0.062	  0.046	  0.751	  0.296	  0.152	 -9.766	 -0.004	  0.003	  0.004	 32.200	 78.929	 2053.529
61698	  0.065	  0.047	  0.751	  0.326	  0.143	 -9.746	 -0.003	  0.002	  0.005	 32.200	 78.797	 2069.204
61748	  0.063	  0.045	  0.751	  0.333	  0.125	 -9.791	 -0.003	  0.004	  0.004	 32.200	 78.672	 2084.076
61798	  0.063	  0.047	  0.753	  0.329	  0.144	 -9.775	 -0.003	  0.002	  0.004	 32.200	 78.525	 2101.602
61848	  0.064	  0.057	  0.752	  0.348	  0.153	 -9.757	 -0.004	  0.003	  0.003	 32.200	 78.401	 2116.416
61898	  0.062	  0.049	  0.752	  0.309	  0.140	 -9.799	 -0.004	  0.002	  0.004	 32.200	 78.254	 2134.014
61949	  0.065	  0.048	  0.744	  0.316	  0.180	 -9.776	 -0.005	  0.003	  0.004	 32.200	 78.126	 2149.369
61999	  0.062	  0.053	  0.749	  0.327	  0.164	 -9.753	 -0.005	  0.002	  0.005	 32.200	 78.005	 2163.913
62049	  0.065	  0.048	  0.754	  0.326	  0.151	 -9.759	 -0.006	  0.002	  0.004	 32.200	 77.854	 2182.100
62099	  0.063	  0.049	  0.751	  0.319	  0.132	 -9.770	 -0.004	  0.003	  0.004	 32.200	 77.722	 2198.032
62148	  0.061	  0.046	  0.750	  0.375	  0.122	 -9.817	 -0.004	  0.004	  0.002	 32.200	 77.609	 2211.698
62198	  0.062	  0.049	  0.743	  0.335	  0.138	 -9.748	 -0.002	  0.001	  0.002	 32.200	 77.470	 2228.540
62249	  0.064	  0.055	  0.755	  0.334	  0.173	 -9.765	 -0.004	  0.003	  0.003	 32.200	 77.337	 2244.688
62299	  0.062	  0.045	  0.750	  0.342	  0.148	 -9.749	 -0.003	  0.004	  0.006	 32.200	 77.198	 2261.601
62349	  0.064	  0.051	  0.754	  0.349	  0.147	 -9.776	 -0.005	  0.004	  0.004	 32.200	 77.074	 2276.719
62399	  0.063	  0.053	  0.751	  0.353	  0.121	 -9.771	 -0.005	  0.002	  0.005	 32.200	 76.941	 2292.967
62449	  0.063	  0.044	  0.755	  0.312	  0.146	 -9.762	 -0.004	  0.003	  0.003	 32.200	 76.814	 2308.512
62499	  0.062	  0.048	  0.751	  0.324	  0.134	 -9.763	 -0.004	  0.003	  0.004	 32.200	 76.681	 2324.826
62549	  0.061	  0.047	  0.751	  0.316	  0.129	 -9.778	 -0.005	  0.003	  0.003	 32.200	 76.557	 2340.065
62599	  0.061	  0.046	  0.751	  0.322	  0.173	 -9.740	 -0.003	  0.001	  0.006	 32.200	 76.421	 2356.814
62648	  0.061	  0.048	  0.747	  0.331	  0.147	 -9.769	 -0.004	  0.003	  0.003	 32.200	 76.316	 2369.768
62698	  0.063	  0.049	  0.753	  0.333	  0.148	 -9.758	 -0.004	  0.001	  0.003	 32.200	 76.161	 2388.931
62749	  0.063	  0.058	  0.752	  0.323	  0.138	 -9.778	 -0.005	  0.004	  0.003	 32.200	 76.048	 2402.931
62799	  0.060	  0.040	  0.751	  0.312	  0.164	 -9.771	 -0.003	  0.003	  0.003	 32.200	 75.912	 2419.813
62849	  0.063	  0.049	  0.742	  0.317	  0.136	 -9.789	 -0.004	  0.004	  0.004	 32.200	 75.787	 2435.361
62898	  0.063	  0.058	  0.755	  0.334	  0.183	 -9.745	 -0.005	  0.003	  0.004	 32.200	 75.663	 2450.815
62948	  0.063	  0.047	  0.744	  0.324	  0.146	 -9.764	 -0.003	  0.004	  0.004	 32.200	 75.527	 2467.800
62998	  0.062	  0.046	  0.749	  0.342	  0.175	 -9.758	 -0.004	  0.003	  0.004	 32.200	 75.403	 2483.318
63048	  0.063	  0.046	  0.752	  0.288	  0.138	 -9.753	 -0.007	  0.000	  0.004	 32.200	 75.290	 2497.486
63098	  0.062	  0.051	  0.749	  0.287	  0.168	 -9.794	 -0.005	  0.003	  0.004	 32.200	 75.154	 2514.571
63148	  0.063	  0.058	  0.752	  0.330	  0.130	 -9.787	 -0.004	  0.003	  0.004	 32.200	 75.029	 2530.306
63198	  0.062	  0.048	  0.750	  0.330	  0.159	 -9.797	 -0.004	  0.003	  0.004	 32.200	 74.916	 2544.558
63248	  0.065	  0.054	  0.751	  0.308	  0.150	 -9.805	 -0.004	  0.003	  0.005	 32.200	 74.780	 2561.744
63298	  0.063	  0.051	  0.751	  0.340	  0.167	 -9.788	 -0.004	  0.002	  0.002	 32.200	 74.645	 2578.841
63348	  0.062	  0.044	  0.753	  0.313	  0.139	 -9.782	 -0.004	  0.002	  0.003	 32.200	 74.540	 2592.164
63398	  0.063	  0.048	  0.749	  0.339	  0.164	 -9.771	 -0.005	  0.003	  0.004	 32.200	 74.418	 2607.673
63448	  0.065	  0.044	  0.752	  0.294	  0.128	 -9.762	 -0.004	  0.003	  0.005	 32.200	 74.305	 2622.064
63498	  0.061	  0.058	  0.749	  0.326	  0.143	 -9.801	 -0.005	  0.002	  0.004	 32.200	 74.170	 2639.291
63548	  0.063	  0.050	  0.751	  0.324	  0.134	 -9.779	 -0.004	  0.003	  0.004	 32.200	 74.045	 2655.276
63598	  0.061	  0.047	  0.751	  0.342	  0.144	 -9.755	 -0.005	  0.003	  0.003	 32.200	 73.943	 2668.343
63648	  0.059	  0.044	  0.752	  0.324	  0.131	 -9.762	 -0.004	  0.003	  0.003	 32.200	 73.808	 2685.672
63698	  0.061	  0.044	  0.749	  0.313	  0.156	 -9.785	 -0.005	  0.004	  0.003	 32.200	 73.683	 2701.749
63748	  0.063	  0.050	  0.753	  0.332	  0.151	 -9.810	 -0.003	  0.002	  0.004	 32.200	 73.570	 2716.312
63798	  0.062	  0.045	  0.752	  0.331	  0.148	 -9.753	 -0.003	  0.004	  0.003	 32.200	 73.445	 2732.451
63848	  0.063	  0.049	  0.750	  0.365	  0.126	 -9.766	 -0.005	  0.002	  0.004	 32.200	 73.329	 2747.459
63898	  0.063	  0.048	  0.751	  0.308	  0.120	 -9.757	 -0.004	  0.003	  0.004	 32.200	 73.208	 2763.144
63948	  0.063	  0.045	  0.749	  0.291	  0.172	 -9.783	 -0.005	  0.002	  0.004	 32.200	 73.083	 2779.379
63998	  0.062	  0.047	  0.751	  0.299	  0.144	 -9.768	 -0.004	  0.003	  0.004	 32.200	 72.970	 2794.084
64048	  0.062	  0.048	  0.747	  0.343	  0.170	 -9.794	 -0.004	  0.002	  0.006	 32.200	 72.868	 2807.382
64098	  0.062	  0.044	  0.751	  0.309	  0.149	 -9.748	 -0.003	  0.001	  0.005	 32.200	 72.733	 2825.014
64148	  0.063	  0.046	  0.750	  0.377	  0.138	 -9.753	 -0.005	  0.004	  0.004	 32.200	 72.620	 2839.803
64198	  0.062	  0.052	  0.747	  0.304	  0.119	 -9.801	 -0.004	  0.003	  0.004	 32.200	 72.495	 2856.196
64248	  0.064	  0.048	  0.750	  0.323	  0.169	 -9.772	 -0.004	  0.004	  0.003	 32.200	 72.382	 2871.043
64298	  0.062	  0.049	  0.747	  0.299	  0.137	 -9.792	 -0.003	  0.002	  0.005	 32.200	 72.258	 2887.367
64348	  0.063	  0.044	  0.747	  0.322	  0.166	 -9.786	 -0.004	  0.004	  0.004	 32.200	 72.133	 2903.857
64398	  0.064	  0.049	  0.749	  0.311	  0.129	 -9.749	 -0.004	  0.004	  0.006	 32.200	 72.031	 2917.339
64448	  0.061	  0.045	  0.751	  0.336	  0.169	 -9.791	 -0.005	  0.003	  0.003	 32.200	 71.907	 2933.759
64498	  0.065	  0.053	  0.751	  0.283	  0.138	 -9.780	 -0.004	  0.003	  0.005	 32.200	 71.794	 2948.751
64548	  0.060	  0.047	  0.749	  0.333	  0.182	 -9.724	 -0.006	  0.004	  0.003	 32.200	 71.692	 2962.307
64598	  0.063	  0.046	  0.748	  0.309	  0.149	 -9.768	 -0.001	  0.003	  0.003	 32.200	 71.571	 2978.420
64648	  0.062	  0.049	  0.752	  0.331	  0.169	 -9.787	 -0.003	  0.002	  0.003	 32.200	 71.454	 2994.031
64698	  0.060	  0.047	  0.749	  0.307	  0.163	 -9.796	 -0.003	  0.003	  0.004	 32.200	 71.330	 3010.608
64748	  0.063	  0.052	  0.752	  0.325	  0.144	 -9.761	 -0.004	  0.002	  0.003	 32.200	 71.231	 3023.868
64798	  0.062	  0.047	  0.749	  0.316	  0.157	 -9.806	 -0.004	  0.001	  0.004	 32.200	 71.104	 3040.911
64848	  0.065	  0.049	  0.752	  0.316	  0.154	 -9.751	 -0.005	  0.005	  0.004	 32.200	 71.005	 3054.222
64899	  0.063	  0.055	  0.750	  0.328	  0.136	 -9.763	 -0.004	  0.003	  0.005	 32.200	 70.880	 3071.059
64948	  0.065	  0.044	  0.754	  0.345	  0.127	 -9.754	 -0.004	  0.003	  0.005	 32.200	 70.764	 3086.715
64998	  0.062	  0.044	  0.750	  0.331	  0.182	 -9.766	 -0.006	  0.002	  0.004	 32.200	 70.654	 3101.591
65048	  0.063	  0.044	  0.755	  0.337	  0.134	 -9.755	 -0.005	  0.004	  0.003	 32.200	 70.549	 3115.815
65098	  0.063	  0.045	  0.743	  0.332	  0.171	 -9.762	 -0.004	  0.002	  0.004	 32.200	 70.428	 3132.240
65148	  0.066	  0.056	  0.749	  0.300	  0.140	 -9.760	 -0.005	  0.003	  0.004	 32.200	 70.323	 3146.519
65198	  0.061	  0.048	  0.752	  0.309	  0.154	 -9.765	 -0.004	  0.003	  0.005	 32.200	 70.202	 3163.005
65248	  0.063	  0.047	  0.750	  0.340	  0.134	 -9.807	 -0.004	  0.003	  0.005	 32.200	 70.097	 3177.339
65298	  0.064	  0.043	  0.752	  0.325	  0.158	 -9.772	 -0.005	  0.002	  0.003	 32.200	 69.987	 3192.384
65348	  0.065	  0.049	  0.740	  0.324	  0.146	 -9.818	 -0.002	  0.003	  0.004	 32.200	 69.870	 3208.416
65398	  0.062	  0.050	  0.750	  0.313	  0.171	 -9.811	 -0.005	  0.003	  0.003	 32.200	 69.757	 3223.930
65448	  0.062	  0.055	  0.753	  0.294	  0.156	 -9.768	 -0.004	  0.003	  0.005	 32.200	 69.658	 3237.548
65498	  0.063	  0.048	  0.751	  0.325	  0.149	 -9.754	 -0.004	  0.004	  0.003	 32.200	 69.531	 3255.051
65548	  0.064	  0.046	  0.751	  0.312	  0.149	 -9.778	 -0.004	  0.002	  0.005	 32.200	 69.421	 3270.240
65598	  0.061	  0.048	  0.751	  0.350	  0.127	 -9.728	 -0.004	  0.003	  0.004	 32.200	 69.319	 3284.351
65648	  0.064	  0.045	  0.751	  0.349	  0.134	 -9.784	 -0.004	  0.002	  0.003	 32.200	 69.203	 3300.429
65698	  0.063	  0.047	  0.749	  0.316	  0.149	 -9.778	 -0.004	  0.003	  0.001	 32.200	 69.093	 3315.705
65748	  0.064	  0.048	  0.751	  0.290	  0.151	 -9.760	 -0.004	  0.002	  0.004	 32.200	 68.988	 3330.315
65798	  0.062	  0.052	  0.741	  0.321	  0.161	 -9.773	 -0.005	  0.003	  0.004	 32.200	 68.878	 3345.648
65848	  0.061	  0.042	  0.753	  0.335	  0.144	 -9.762	 -0.004	  0.002	  0.005	 32.200	 68.784	 3358.773
65898	  0.061	  0.053	  0.745	  0.322	  0.116	 -9.751	 -0.005	  0.003	  0.003	 32.200	 68.682	 3373.040
65948	  0.063	  0.047	  0.752	  0.351	  0.166	 -9.773	 -0.003	  0.002	  0.003	 32.200	 68.595	 3385.229
65998	  0.062	  0.046	  0.744	  0.335	  0.133	 -9.793	 -0.005	  0.003	  0.004	 32.200	 68.490	 3399.964
66048	  0.063	  0.044	  0.751	  0.308	  0.180	 -9.769	 -0.003	  0.002	  0.004	 32.200	 68.411	 3411.068
66098	  0.063	  0.044	  0.749	  0.325	  0.126	 -9.799	 -0.005	  0.004	  0.002	 32.200	 68.335	 3421.766
66148	  0.060	  0.047	  0.752	  0.343	  0.154	 -9.791	 -0.004	  0.002	  0.007	 32.200	 68.255	 3433.042
66198	  0.062	  0.044	  0.751	  0.328	  0.116	 -9.782	 -0.004	  0.003	  0.002	 32.200	 68.162	 3446.168
66248	  0.062	  0.049	  0.751	  0.291	  0.262	 -9.733	  0.000	  0.002	  0.004	 32.200	 68.086	 3456.912
66298	  0.064	  0.048	  0.750	  0.289	  0.178	 -9.795	 -0.002	  0.005	  0.004	 32.200	 68.018	 3466.537
66348	  0.065	  0.047	  0.749	  0.306	  0.188	 -9.779	 -0.002	  0.004	  0.005	 32.200	 67.950	 3476.173
66398	  0.063	  0.045	  0.751	  0.342	  0.117	 -9.763	 -0.004	  0.005	  0.005	 32.200	 67.890	 3484.686
66448	  0.063	  0.054	  0.755	  0.380	  0.128	 -9.728	 -0.003	  0.002	  0.005	 32.200	 67.800	 3497.470
66498	  0.064	  0.046	  0.754	  0.360	  0.123	 -9.769	 -0.004	  0.002	  0.003	 32.200	 67.755	 3503.871
66548	  0.065	  0.047	  0.749	  0.327	  0.150	 -9.713	 -0.005	  0.002	  0.002	 32.200	 67.698	 3511.985
66598	  0.063	  0.062	  0.752	  0.303	  0.114	 -9.782	 -0.004	  0.001	  0.002	 32.200	 67.656	 3517.968
66648	  0.062	  0.047	  0.750	  0.304	  0.116	 -9.747	 -0.004	  0.002	  0.003	 32.200	 67.619	 3523.243
66697	  0.062	  0.045	  0.749	  0.317	  0.154	 -9.786	 -0.003	  0.003	  0.004	 32.200	 67.554	 3532.519
66747	  0.064	  0.049	  0.746	  0.313	  0.130	 -9.741	 -0.003	  0.004	  0.003	 32.200	 67.520	 3537.375
66797	  0.064	  0.045	  0.754	  0.344	  0.122	 -9.734	 -0.004	  0.003	  0.003	 32.200	 67.483	 3542.663
66847	  0.061	  0.048	  0.742	  0.320	  0.149	 -9.786	 -0.004	  0.004	  0.003	 32.200	 67.464	 3545.381
66897	  0.062	  0.052	  0.743	  0.320	  0.170	 -9.782	 -0.003	  0.002	  0.005	 32.200	 67.427	 3550.673
66948	  0.065	  0.052	  0.750	  0.329	  0.125	 -9.755	 -0.004	  0.003	  0.004	 32.200	 67.415	 3552.391
66997	  0.061	  0.048	  0.750	  0.342	  0.150	 -9.758	 -0.004	  0.003	  0.003	 32.200	 67.396	 3555.110
67047	  0.061	  0.045	  0.753	  0.347	  0.130	 -9.765	 -0.004	  0.002	  0.004	 32.200	 67.384	 3556.829
67097	  0.062	  0.046	  0.750	  0.349	  0.162	 -9.774	 -0.005	  0.003	  0.003	 32.200	 67.415	 3552.391
67147	  0.062	  0.043	  0.751	  0.342	  0.106	 -9.790	 -0.004	  0.002	  0.003	 32.200	 67.407	 3553.536
67197	  0.062	  0.048	  0.748	  0.315	  0.145	 -9.809	 -0.004	  0.003	  0.005	 32.200	 67.430	 3550.244
67247	  0.064	  0.049	  0.751	  0.308	  0.140	 -9.816	 -0.004	  0.002	  0.004	 32.200	 67.464	 3545.381
67297	  0.062	  0.046	  0.750	  0.346	  0.145	 -9.764	 -0.005	  0.003	  0.004	 32.200	 67.497	 3540.662
67347	  0.062	  0.043	  0.748	  0.341	  0.133	 -9.783	 -0.004	  0.002	  0.003	 32.200	 67.543	 3534.090
67397	  0.063	  0.045	  0.751	  0.344	  0.143	 -9.755	 -0.006	  0.004	  0.002	 32.200	 67.596	 3526.525
67447	  0.062	  0.048	  0.752	  0.302	  0.139	 -9.742	 -0.003	  0.001	  0.004	 32.200	 67.645	 3519.536
67497	  0.063	  0.044	  0.748	  0.314	  0.160	 -9.794	 -0.004	  0.002	  0.004	 32.200	 67.735	 3506.716
67547	  0.064	  0.055	  0.753	  0.311	  0.124	 -9.811	 -0.003	  0.001	  0.004	 32.200	 67.814	 3495.480
67597	  0.062	  0.048	  0.752	  0.316	  0.127	 -9.759	 -0.003	  0.004	  0.003	 32.200	 67.882	 3485.820
67648	  0.054	  0.056	  0.729	  0.177	  0.176	 -9.778	 -0.007	  0.008	  0.010	 32.200	 67.984	 3471.353
67698	  0.063	  0.045	  0.754	  0.379	  0.178	 -9.632	  0.026	  0.025	  0.106	 32.200	 68.094	 3455.780
67748	  0.063	  0.055	  0.749	  0.490	 -0.163	 -9.828	  0.018	  0.011	  0.069	 32.200	 68.222	 3437.697
67798	  0.063	  0.044	  0.748	  0.373	  0.149	 -9.667	 -0.000	  0.001	  0.001	 32.200	 68.323	 3423.456
67848	  0.063	  0.053	  0.741	  0.373	  0.123	 -9.772	 -0.005	 -0.001	  0.001	 32.200	 68.448	 3405.866
67898	  0.063	  0.058	  0.742	  0.329	  0.097	 -9.758	 -0.006	  0.002	  0.002	 32.200	 68.592	 3385.649
67948	  0.062	  0.049	  0.741	  0.370	  0.131	 -9.756	 -0.005	  0.001	  0.004	 32.200	 68.731	 3366.183
67998	  0.063	  0.049	  0.742	  0.356	  0.077	 -9.759	 -0.005	  0.004	  0.001	 32.200	 68.900	 3342.578
68048	  0.060	  0.051	  0.739	  0.340	  0.137	 -9.762	 -0.003	  0.001	  0.002	 32.200	 69.056	 3320.851
68098	  0.061	  0.050	  0.744	  0.300	  0.096	 -9.754	 -0.004	  0.003	  0.002	 32.200	 69.192	 3301.956
68148	  0.057	  0.052	  0.740	  0.376	  0.138	 -9.772	 -0.004	  0.002	  0.005	 32.200	 69.353	 3279.645
68198	  0.063	  0.060	  0.741	  0.364	  0.118	 -9.728	 -0.005	  0.003	  0.004	 32.200	 69.534	 3254.637
68248	  0.061	  0.054	  0.741	  0.360	  0.117	 -9.791	 -0.005	  0.002	  0.003	 32.200	 69.704	 3231.218
68298	  0.059	  0.049	  0.737	  0.311	  0.104	 -9.766	 -0.005	  0.002	  0.003	 32.200	 69.882	 3206.770
68348	  0.061	  0.049	  0.740	  0.335	  0.106	 -9.744	 -0.004	  0.004	  0.002	 32.200	 70.054	 3183.217
68398	  0.062	  0.052	  0.735	  0.343	  0.097	 -9.792	 -0.005	  0.002	  0.006	 32.200	 70.247	 3156.870
68448	  0.060	  0.054	  0.744	  0.338	  0.111	 -9.753	 -0.004	  0.003	  0.003	 32.200	 70.425	 3132.646
68498	  0.063	  0.056	  0.734	  0.346	  0.111	 -9.753	 -0.004	  0.002	  0.004	 32.200	 70.628	 3105.111
68548	  0.063	  0.053	  0.742	  0.350	  0.112	 -9.782	 -0.005	  0.003	  0.004	 32.200	 70.798	 3082.124
68598	  0.063	  0.052	  0.742	  0.340	  0.110	 -9.766	 -0.005	  0.002	  0.003	 32.200	 71.005	 3054.222
68648	  0.061	  0.055	  0.735	  0.345	  0.111	 -9.749	 -0.005	  0.002	  0.003	 32.200	 71.186	 3029.903
68698	  0.061	  0.052	  0.736	  0.339	  0.105	 -9.759	 -0.004	  0.003	  0.004	 32.200	 71.398	 3001.513
68748	  0.063	  0.064	  0.745	  0.351	  0.127	 -9.783	 -0.005	  0.001	  0.005	 32.200	 71.579	 2977.354
68798	  0.061	  0.053	  0.733	  0.328	  0.126	 -9.733	 -0.003	  0.003	  0.004	 32.200	 71.797	 2948.353
68848	  0.059	  0.052	  0.736	  0.346	  0.115	 -9.774	 -0.005	  0.001	  0.003	 32.200	 71.986	 2923.294
68898	  0.061	  0.057	  0.744	  0.320	  0.138	 -9.766	 -0.004	  0.002	  0.004	 32.200	 72.215	 2893.037
68948	  0.060	  0.054	  0.740	  0.337	  0.118	 -9.748	 -0.006	  0.003	  0.005	 32.200	 72.405	 2868.019
68998	  0.059	  0.048	  0.747	  0.321	  0.142	 -9.800	 -0.003	  0.002	  0.004	 32.200	 72.631	 2838.363
69048	  0.062	  0.064	  0.739	  0.342	  0.114	 -9.766	 -0.005	  0.004	  0.003	 32.200	 72.835	 2811.688
69098	  0.062	  0.051	  0.741	  0.373	  0.096	 -9.790	 -0.004	  0.003	  0.004	 32.200	 73.053	 2783.280
69148	  0.062	  0.047	  0.740	  0.336	  0.098	 -9.800	 -0.004	  0.002	  0.004	 32.200	 73.256	 2756.918
69198	  0.064	  0.050	  0.742	  0.346	  0.123	 -9.755	 -0.004	  0.003	  0.003	 32.200	 73.483	 2727.542
69248	  0.061	  0.053	  0.742	  0.311	  0.106	 -9.779	 -0.004	  0.001	  0.003	 32.200	 73.694	 2700.333
69298	  0.061	  0.054	  0.739	  0.344	  0.133	 -9.785	 -0.004	  0.002	  0.004	 32.200	 73.921	 2671.164
69348	  0.062	  0.050	  0.738	  0.322	  0.097	 -9.792	 -0.004	  0.003	  0.003	 32.200	 74.136	 2643.635
69398	  0.061	  0.053	  0.741	  0.359	  0.121	 -9.772	 -0.004	  0.001	  0.003	 32.200	 74.373	 2613.400
69448	  0.059	  0.050	  0.735	  0.308	  0.108	 -9.806	 -0.005	  0.003	  0.002	 32.200	 74.588	 2586.071
69498	  0.061	  0.052	  0.741	  0.330	  0.106	 -9.801	 -0.004	  0.003	  0.004	 32.200	 74.803	 2558.835
69548	  0.061	  0.062	  0.742	  0.309	  0.115	 -9.760	 -0.005	  0.002	  0.004	 32.200	 75.029	 2530.306
69598	  0.062	  0.053	  0.741	  0.351	  0.124	 -9.755	 -0.006	  0.003	  0.005	 32.200	 75.244	 2503.259
69648	  0.060	  0.050	  0.743	  0.366	  0.088	 -9.776	 -0.004	  0.001	  0.004	 32.200	 75.471	 2474.805
69698	  0.061	  0.059	  0.740	  0.353	  0.110	 -9.774	 -0.005	  0.003	  0.003	 32.200	 75.708	 2445.204
69748	  0.059	  0.051	  0.740	  0.336	  0.116	 -9.804	 -0.004	  0.002	  0.003	 32.200	 75.923	 2418.447
69798	  0.062	  0.050	  0.741	  0.336	  0.126	 -9.767	 -0.006	  0.003	  0.004	 32.200	 76.149	 2390.417
69848	  0.063	  0.050	  0.743	  0.324	  0.121	 -9.709	 -0.004	  0.003	  0.006	 32.200	 76.364	 2363.844
69898	  0.061	  0.055	  0.742	  0.362	  0.132	 -9.796	 -0.003	  0.000	  0.003	 32.200	 76.579	 2337.359
69948	  0.062	  0.054	  0.744	  0.355	  0.147	 -9.764	 -0.006	  0.002	  0.004	 32.200	 76.806	 2309.493
69998	  0.062	  0.050	  0.740	  0.332	  0.127	 -9.746	 -0.004	  0.002	  0.003	 32.200	 77.032	 2281.847
70048	  0.061	  0.053	  0.740	  0.336	  0.139	 -9.797	 -0.005	  0.002	  0.004	 32.200	 77.244	 2256.000
70098	  0.061	  0.051	  0.741	  0.353	  0.120	 -9.800	 -0.004	  0.003	  0.003	 32.200	 77.492	 2225.872
70148	  0.061	  0.053	  0.741	  0.322	  0.144	 -9.780	 -0.004	  0.002	  0.004	 32.200	 77.699	 2200.812
70198	  0.060	  0.048	  0.742	  0.376	  0.081	 -9.753	 -0.004	  0.002	  0.005	 32.200	 77.937	 2172.098
70248	  0.060	  0.051	  0.739	  0.342	  0.122	 -9.753	 -0.006	  0.002	  0.005	 32.200	 78.163	 2144.927
70298	  0.061	  0.049	  0.738	  0.344	  0.099	 -9.802	 -0.004	  0.001	  0.004	 32.200	 78.390	 2117.731
70348	  0.062	  0.054	  0.738	  0.359	  0.116	 -9.783	 -0.003	  0.001	  0.003	 32.200	 78.616	 2090.748
70398	  0.061	  0.051	  0.738	  0.331	  0.113	 -9.770	 -0.003	  0.003	  0.005	 32.200	 78.831	 2065.163
70448	  0.061	  0.056	  0.742	  0.363	  0.139	 -9.749	 -0.005	  0.003	  0.004	 32.200	 79.054	 2038.714
70498	  0.060	  0.045	  0.739	  0.340	  0.107	 -9.753	 -0.004	  0.003	  0.005	 32.200	 79.269	 2013.299
70548	  0.062	  0.050	  0.740	  0.354	  0.107	 -9.778	 -0.005	  0.003	  0.003	 32.200	 79.510	 1984.906
70598	  0.063	  0.050	  0.742	  0.329	  0.085	 -9.759	 -0.003	  0.001	  0.003	 32.200	 79.747	 1957.085
70648	  0.063	  0.052	  0.741	  0.358	  0.124	 -9.779	 -0.004	  0.002	  0.002	 32.200	 79.947	 1933.684
70698	  0.060	  0.053	  0.740	  0.308	  0.091	 -9.803	 -0.005	  0.003	  0.004	 32.200	 80.200	 1904.181
70748	  0.062	  0.054	  0.735	  0.324	  0.124	 -9.781	 -0.004	  0.003	  0.004	 32.200	 80.415	 1879.196
70798	  0.062	  0.053	  0.741	  0.335	  0.113	 -9.736	 -0.003	  0.002	  0.005	 32.200	 80.652	 1851.747
70848	  0.064	  0.047	  0.742	  0.345	  0.110	 -9.790	 -0.005	  0.003	  0.004	 32.200	 80.856	 1828.196
70898	  0.061	  0.054	  0.739	  0.307	  0.112	 -9.794	 -0.004	  0.001	  0.004	 32.200	 81.090	 1801.271
70948	  0.061	  0.055	  0.745	  0.351	  0.113	 -9.785	 -0.003	  0.005	  0.003	 32.200	 81.308	 1776.268
70998	  0.059	  0.050	  0.737	  0.325	  0.107	 -9.782	 -0.004	  0.001	  0.005	 32.200	 81.535	 1750.317
71048	  0.062	  0.049	  0.739	  0.363	  0.127	 -9.766	 -0.004	  0.003	  0.004	 32.200	 81.738	 1727.184
71098	  0.060	  0.051	  0.742	  0.356	  0.108	 -9.785	 -0.004	  0.003	  0.004	 32.200	 81.950	 1703.098
71148	  0.062	  0.048	  0.739	  0.385	  0.106	 -9.764	 -0.005	  0.003	  0.003	 32.200	 82.146	 1680.896
71198	  0.062	  0.051	  0.733	  0.351	  0.117	 -9.763	 -0.003	  0.002	  0.002	 32.200	 82.368	 1655.824
71248	  0.062	  0.052	  0.738	  0.323	  0.134	 -9.777	 -0.003	  0.003	  0.003	 32.200	 82.561	 1634.093
71298	  0.061	  0.046	  0.739	  0.323	  0.115	 -9.809	 -0.005	  0.003	  0.005	 32.200	 82.764	 1611.301
71348	  0.062	  0.064	  0.740	  0.304	  0.108	 -9.783	 -0.003	  0.003	  0.004	 32.200	 82.957	 1589.694
71398	  0.062	  0.050	  0.739	  0.342	  0.125	 -9.767	 -0.003	  0.002	  0.005	 32.200	 83.172	 1565.694
71448	  0.061	  0.054	  0.744	  0.323	  0.119	 -9.788	 -0.005	  0.004	  0.004	 32.200	 83.356	 1545.212
71498	  0.063	  0.048	  0.741	  0.322	  0.108	 -9.768	 -0.004	  0.002	  0.003	 32.200	 83.545	 1524.231
71548	  0.061	  0.053	  0.740	  0.339	  0.100	 -9.738	 -0.005	  0.002	  0.005	 32.200	 83.715	 1505.407
71598	  0.063	  0.048	  0.740	  0.346	  0.110	 -9.744	 -0.004	  0.005	  0.005	 32.200	 83.918	 1482.988
71648	  0.060	  0.053	  0.740	  0.325	  0.102	 -9.727	 -0.004	  0.002	  0.005	 32.200	 84.088	 1464.263
71698	  0.061	  0.051	  0.743	  0.328	  0.105	 -9.769	 -0.003	  0.003	  0.004	 32.200	 84.269	 1444.377
71748	  0.060	  0.050	  0.735	  0.328	  0.100	 -9.782	 -0.004	  0.002	  0.003	 32.200	 84.439	 1425.744
71798	  0.064	  0.049	  0.741	  0.345	  0.123	 -9.764	 -0.004	  0.003	  0.003	 32.200	 84.620	 1405.956
71848	  0.061	  0.057	  0.741	  0.355	  0.118	 -9.779	 -0.003	  0.002	  0.005	 32.200	 84.778	 1388.724
71898	  0.063	  0.050	  0.742	  0.339	  0.123	 -9.746	 -0.003	  0.003	  0.004	 32.200	 84.959	 1369.029
71948	  0.063	  0.060	  0.742	  0.349	  0.119	 -9.762	 -0.004	  0.003	  0.005	 32.200	 85.106	 1353.070
71998	  0.062	  0.050	  0.743	  0.326	  0.121	 -9.785	 -0.004	  0.004	  0.004	 32.200	 85.276	 1334.656
72048	  0.060	  0.052	  0.742	  0.339	  0.107	 -9.809	 -0.007	  0.003	  0.004	 32.200	 85.434	 1317.582
72098	  0.061	  0.052	  0.738	  0.349	  0.088	 -9.778	 -0.005	  0.003	  0.003	 32.200	 85.619	 1297.636
72148	  0.059	  0.049	  0.743	  0.325	  0.110	 -9.763	 -0.006	  0.003	  0.004	 32.200	 85.777	 1280.643
72198	  0.060	  0.057	  0.738	  0.357	  0.064	 -9.786	 -0.004	  0.003	  0.003	 32.200	 85.943	 1262.828
72248	  0.061	  0.046	  0.738	  0.369	  0.123	 -9.757	 -0.004	  0.001	  0.003	 32.200	 86.102	 1245.804
72298	  0.060	  0.060	  0.740	  0.342	  0.113	 -9.749	 -0.005	  0.003	  0.003	 32.200	 86.260	 1228.924
72348	  0.061	  0.051	  0.740	  0.328	  0.110	 -9.752	 -0.004	  0.001	  0.003	 32.200	 86.419	 1211.974
72398	  0.061	  0.050	  0.739	  0.310	  0.127	 -9.783	 -0.004	  0.004	  0.003	 32.200	 86.588	 1193.999
72448	  0.062	  0.060	  0.745	  0.341	  0.122	 -9.763	 -0.004	  0.003	  0.005	 32.200	 86.735	 1178.397
72498	  0.061	  0.049	  0.736	  0.351	  0.111	 -9.790	 -0.003	  0.003	  0.004	 32.200	 86.894	 1161.557
72548	  0.062	  0.052	  0.744	  0.361	  0.101	 -9.766	 -0.005	  0.005	  0.005	 32.200	 87.052	 1144.859
72598	  0.062	  0.052	  0.734	  0.353	  0.115	 -9.737	 -0.004	  0.002	  0.003	 32.200	 87.210	 1128.198
72648	  0.063	  0.052	  0.742	  0.347	  0.121	 -9.767	 -0.005	  0.002	  0.003	 32.200	 87.369	 1111.467
72698	  0.063	  0.053	  0.741	  0.316	  0.109	 -9.780	 -0.004	  0.003	  0.004	 32.200	 87.539	 1093.619
72748	  0.062	  0.056	  0.732	  0.352	  0.123	 -9.772	 -0.004	  0.002	  0.004	 32.200	 87.674	 1079.475
72798	  0.062	  0.052	  0.741	  0.337	  0.125	 -9.782	 -0.004	  0.003	  0.005	 32.200	 87.855	 1060.552
72849	  0.064	  0.052	  0.737	  0.348	  0.095	 -9.751	 -0.004	  0.002	  0.005	 32.200	 88.002	 1045.219
72898	  0.060	  0.047	  0.744	  0.326	  0.119	 -9.757	 -0.004	  0.003	  0.004	 32.200	 88.161	 1028.667
72948	  0.062	  0.055	  0.735	  0.319	  0.130	 -9.759	 -0.002	  0.005	  0.005	 32.200	 88.334	 1010.698
72998	  0.062	  0.052	  0.739	  0.343	  0.118	 -9.758	 -0.003	  0.001	  0.005	 32.200	 88.489	 994.635
73048	  0.064	  0.051	  0.741	  0.364	  0.100	 -9.753	 -0.005	  0.003	  0.003	 32.200	 88.647	 978.294
73098	  0.061	  0.052	  0.742	  0.347	  0.094	 -9.805	 -0.002	  0.001	  0.004	 32.200	 88.828	 959.618
73148	  0.063	  0.049	  0.742	  0.353	  0.112	 -9.776	 -0.004	  0.003	  0.004	 32.200	 88.975	 944.484
73198	  0.062	  0.054	  0.738	  0.339	  0.115	 -9.756	 -0.004	  0.002	  0.003	 32.200	 89.145	 927.019
73248	  0.061	  0.051	  0.740	  0.329	  0.102	 -9.743	 -0.004	  0.002	  0.002	 32.200	 89.315	 909.593
73298	  0.063	  0.053	  0.742	  0.314	  0.115	 -9.751	 -0.004	  0.002	  0.004	 32.200	 89.484	 892.309
73348	  0.063	  0.057	  0.740	  0.326	  0.095	 -9.777	 -0.003	  0.004	  0.006	 32.200	 89.650	 875.369
73399	  0.063	  0.054	  0.735	  0.360	  0.119	 -9.793	 -0.004	  0.003	  0.004	 32.200	 89.835	 856.535
73448	  0.063	  0.059	  0.742	  0.322	  0.110	 -9.750	 -0.005	  0.003	  0.004	 32.200	 90.001	 839.674
73499	  0.062	  0.058	  0.738	  0.328	  0.126	 -9.785	 -0.005	  0.001	  0.004	 32.200	 90.197	 819.815
73548	  0.062	  0.045	  0.742	  0.303	  0.114	 -9.791	 -0.004	  0.003	  0.004	 32.200	 90.374	 801.923
73599	  0.061	  0.052	  0.739	  0.322	  0.125	 -9.769	 -0.006	  0.001	  0.004	 32.200	 90.571	 782.060
73648	  0.061	  0.053	  0.742	  0.347	  0.111	 -9.752	 -0.005	  0.002	  0.004	 32.200	 90.759	 763.152
73699	  0.063	  0.049	  0.739	  0.377	  0.106	 -9.778	 -0.004	  0.002	  0.004	 32.200	 90.944	 744.591
73749	  0.063	  0.048	  0.740	  0.350	  0.097	 -9.731	 -0.003	  0.002	  0.004	 32.200	 91.159	 723.077
73799	  0.061	  0.055	  0.741	  0.348	  0.134	 -9.768	 -0.005	  0.003	  0.002	 32.200	 91.374	 701.622
73849	  0.063	  0.051	  0.742	  0.327	  0.118	 -9.755	 -0.003	  0.002	  0.004	 32.200	 91.566	 682.514
73899	  0.063	  0.049	  0.742	  0.326	  0.137	 -9.751	 -0.005	  0.003	  0.003	 32.200	 91.781	 661.174
73949	  0.061	  0.052	  0.741	  0.307	  0.130	 -9.731	 -0.006	  0.001	  0.004	 32.200	 91.973	 642.166
73999	  0.064	  0.050	  0.739	  0.356	  0.098	 -9.757	 -0.005	  0.003	  0.002	 32.200	 92.200	 619.755
74049	  0.062	  0.052	  0.743	  0.365	  0.112	 -9.790	 -0.005	  0.002	  0.004	 32.200	 92.403	 599.769
74099	  0.065	  0.049	  0.735	  0.354	  0.132	 -9.759	 -0.003	  0.002	  0.003	 32.200	 92.618	 578.658
74149	  0.062	  0.049	  0.739	  0.338	  0.067	 -9.778	 -0.003	  0.002	  0.004	 32.200	 92.833	 557.605
74199	  0.062	  0.050	  0.738	  0.333	  0.118	 -9.749	 -0.005	  0.004	  0.004	 32.200	 93.059	 535.538
74249	  0.061	  0.049	  0.738	  0.338	  0.124	 -9.729	 -0.005	  0.003	  0.003	 32.200	 93.270	 514.993
74299	  0.059	  0.050	  0.742	  0.349	  0.130	 -9.781	 -0.004	  0.003	  0.003	 32.200	 93.485	 494.115
74349	  0.063	  0.050	  0.739	  0.359	  0.102	 -9.758	 -0.004	  0.003	  0.002	 32.200	 93.689	 474.358
74399	  0.063	  0.050	  0.733	  0.320	  0.110	 -9.715	 -0.003	  0.004	  0.002	 32.200	 93.919	 452.145
74449	  0.063	  0.057	  0.739	  0.322	  0.115	 -9.806	 -0.004	  0.002	  0.004	 32.200	 94.123	 432.497
74499	  0.064	  0.052	  0.742	  0.305	  0.094	 -9.775	 -0.005	  0.002	  0.004	 32.200	 94.349	 410.789
74549	  0.061	  0.052	  0.736	  0.368	  0.107	 -9.771	 -0.003	  0.004	  0.006	 32.200	 94.553	 391.247
74599	  0.059	  0.046	  0.741	  0.351	  0.106	 -9.776	 -0.004	  0.004	  0.004	 32.200	 94.768	 370.706
74649	  0.060	  0.051	  0.742	  0.342	  0.107	 -9.776	 -0.005	  0.002	  0.005	 32.200	 94.945	 353.838
74699	  0.060	  0.051	  0.740	  0.306	  0.115	 -9.749	 -0.003	  0.001	  0.003	 32.200	 95.152	 334.157
74749	  0.060	  0.060	  0.744	  0.326	  0.138	 -9.746	 -0.005	  0.003	  0.005	 32.200	 95.307	 319.453
74799	  0.061	  0.054	  0.740	  0.324	  0.118	 -9.749	 -0.005	  0.003	  0.005	 32.200	 95.488	 302.320
74849	  0.059	  0.051	  0.743	  0.314	  0.153	 -9.729	 -0.000	  0.004	  0.004	 32.200	 95.639	 288.056
74899	  0.060	  0.049	  0.739	  0.330	  0.117	 -9.764	 -0.004	  0.002	  0.005	 32.200	 95.820	 270.993
74949	  0.062	  0.051	  0.740	  0.365	  0.111	 -9.778	 -0.004	  0.002	  0.004	 32.200	 95.963	 257.539
74999	  0.061	  0.055	  0.738	  0.328	  0.088	 -9.773	 -0.005	  0.002	  0.004	 32.200	 96.125	 242.326
75049	  0.062	  0.048	  0.741	  0.339	  0.115	 -9.767	 -0.005	  0.003	  0.003	 32.200	 96.261	 229.579
75099	  0.061	  0.048	  0.740	  0.331	  0.111	 -9.773	 -0.005	  0.003	  0.005	 32.200	 96.404	 216.199
75149	  0.060	  0.052	  0.742	  0.319	  0.115	 -9.732	 -0.003	  0.003	  0.003	 32.200	 96.555	 202.096
75199	  0.062	  0.056	  0.741	  0.337	  0.129	 -9.773	 -0.005	  0.003	  0.003	 32.200	 96.789	 180.292
75249	  0.060	  0.049	  0.743	  0.328	  0.111	 -9.746	 -0.002	  0.003	  0.002	 32.200	 97.038	 157.160
75299	  0.065	  0.050	  0.743	  0.334	  0.109	 -9.737	 -0.005	  0.003	  0.003	 32.200	 97.313	 131.695
75349	  0.062	  0.064	  0.740	  0.324	  0.132	 -9.736	 -0.005	  0.003	  0.005	 32.200	 97.547	 110.093
75399	  0.062	  0.050	  0.740	  0.331	  0.106	 -9.727	 -0.003	  0.002	  0.005	 32.200	 97.784	 88.278
75449	  0.061	  0.052	  0.734	  0.313	  0.060	 -9.786	 -0.021	  0.007	  0.012	 32.200	 98.044	 64.417
75499	  0.062	  0.048	  0.735	  0.337	  0.094	 -9.831	 -0.008	  0.007	  0.011	 32.200	 98.440	 28.220
75549	  0.060	  0.052	  0.739	  0.403	  0.061	 -9.820	 -0.003	  0.003	  0.009	 32.200	 98.723	  2.458
75599	  0.062	  0.052	  0.739	  0.379	  0.106	 -9.773	 -0.005	  0.002	  0.005	 32.200	 98.746	  0.368
75649	  0.061	  0.051	  0.740	  0.321	  0.078	 -9.756	 -0.004	  0.003	  0.004	 32.200	 98.750	  0.005
75699	  0.062	  0.048	  0.739	  0.368	  0.119	 -9.726	 -0.006	  0.004	  0.005	 32.200	 98.746	  0.368
75749	  0.063	  0.050	  0.732	  0.370	  0.090	 -9.767	 -0.004	  0.003	  0.003	 32.200	 98.757	 -0.631
75798	  0.059	  0.051	  0.742	  0.366	  0.133	 -9.777	 -0.005	  0.004	  0.002	 32.200	 98.746	  0.368
75848	  0.060	  0.052	  0.743	  0.316	  0.107	 -9.781	 -0.004	  0.003	  0.003	 32.200	 98.746	  0.368
75898	  0.063	  0.053	  0.739	  0.361	  0.127	 -9.780	 -0.004	  0.004	  0.002	 32.200	 98.750	  0.005
75948	  0.063	  0.048	  0.742	  0.317	  0.119	 -9.706	 -0.006	  0.004	  0.004	 32.200	 98.746	  0.368
75998	  0.062	  0.051	  0.735	  0.374	  0.116	 -9.744	 -0.005	  0.002	  0.004	 32.200	 98.746	  0.368
76048	  0.062	  0.050	  0.743	  0.355	  0.106	 -9.754	 -0.004	  0.002	  0.004	 32.200	 98.746	  0.368
76098	  0.059	  0.052	  0.740	  0.357	  0.122	 -9.743	 -0.005	  0.002	  0.003	 32.200	 98.757	 -0.631
76148	  0.062	  0.055	  0.744	  0.341	  0.108	 -9.758	 -0.004	  0.002	  0.002	 32.200	 98.746	  0.368
76198	  0.062	  0.051	  0.736	  0.352	  0.135	 -9.734	 -0.003	  0.003	  0.004	 32.200	 98.746	  0.368
76248	  0.063	  0.051	  0.741	  0.346	  0.116	 -9.784	 -0.004	  0.002	  0.005	 32.200	 98.757	 -0.631
76299	  0.062	  0.049	  0.742	  0.354	  0.116	 -9.748	 -0.005	  0.002	  0.003	 32.200	 98.746	  0.368
76348	  0.062	  0.048	  0.738	  0.333	  0.133	 -9.738	 -0.006	  0.002	  0.003	 32.200	 98.757	 -0.631
76398	  0.062	  0.053	  0.741	  0.340	  0.134	 -9.745	 -0.004	  0.002	  0.003	 32.200	 98.750	  0.005
76448	  0.061	  0.060	  0.740	  0.334	  0.116	 -9.753	 -0.005	  0.002	  0.003	 32.200	 98.746	  0.368
76498	  0.061	  0.051	  0.740	  0.331	  0.121	 -9.754	 -0.006	  0.002	  0.003	 32.200	 98.750	  0.005
76548	  0.062	  0.051	  0.742	  0.332	  0.134	 -9.785	 -0.004	  0.002	  0.006	 32.200	 98.757	 -0.631
76598	  0.062	  0.048	  0.740	  0.333	  0.102	 -9.776	 -0.004	  0.003	  0.004	 32.200	 98.757	 -0.631
76648	  0.061	  0.050	  0.741	  0.353	  0.118	 -9.748	 -0.006	  0.002	  0.004	 32.200	 98.757	 -0.631
76698	  0.061	  0.049	  0.740	  0.335	  0.098	 -9.753	 -0.004	  0.003	  0.004	 32.200	 98.746	  0.368
76748	  0.060	  0.052	  0.740	  0.320	  0.126	 -9.767	 -0.005	  0.002	  0.005	 32.200	 98.746	  0.368
76798	  0.058	  0.048	  0.735	  0.316	  0.122	 -9.763	 -0.004	  0.002	  0.005	 32.200	 98.746	  0.368
76848	  0.063	  0.051	  0.739	  0.353	  0.125	 -9.745	 -0.003	  0.003	  0.004	 32.200	 98.750	  0.005
76898	  0.063	  0.051	  0.741	  0.352	  0.098	 -9.785	 -0.003	  0.003	  0.004	 32.200	 98.746	  0.368
76949	  0.061	  0.052	  0.743	  0.364	  0.126	 -9.747	 -0.005	  0.001	  0.003	 32.200	 98.757	 -0.631
76998	  0.062	  0.049	  0.743	  0.323	  0.114	 -9.774	 -0.004	  0.003	  0.003	 32.200	 98.746	  0.368
77048	  0.062	  0.050	  0.736	  0.358	  0.124	 -9.781	 -0.003	  0.003	  0.003	 32.200	 98.757	 -0.631
77098	  0.061	  0.051	  0.742	  0.336	  0.111	 -9.755	 -0.004	  0.003	  0.003	 32.200	 98.746	  0.368
77148	  0.065	  0.062	  0.740	  0.333	  0.120	 -9.742	 -0.004	  0.003	  0.005	 32.200	 98.761	 -0.995
77198	  0.063	  0.052	  0.741	  0.329	  0.100	 -9.749	 -0.003	  0.002	  0.004	 32.200	 98.761	 -0.995
77248	  0.063	  0.053	  0.739	  0.343	  0.116	 -9.718	 -0.004	  0.003	  0.003	 32.200	 98.757	 -0.631
77298	  0.061	  0.050	  0.739	  0.345	  0.113	 -9.799	 -0.004	  0.002	  0.004	 32.200	 98.757	 -0.631
77348	  0.063	  0.053	  0.742	  0.330	  0.139	 -9.795	 -0.004	  0.004	  0.004	 32.200	 98.757	 -0.631
77398	  0.063	  0.052	  0.735	  0.307	  0.124	 -9.763	 -0.005	  0.002	  0.006	 32.200	 98.757	 -0.631
77448	  0.062	  0.049	  0.739	  0.337	  0.090	 -9.744	 -0.005	  0.003	  0.005	 32.200	 98.750	  0.005
77498	  0.063	  0.053	  0.739	  0.341	  0.097	 -9.755	 -0.005	  0.004	  0.005	 32.200	 98.746	  0.368
77548	  0.062	  0.051	  0.735	  0.349	  0.103	 -9.786	 -0.004	  0.003	  0.004	 32.200	 98.757	 -0.631
77598	  0.061	  0.050	  0.740	  0.344	  0.079	 -9.770	 -0.005	  0.001	  0.003	 32.200	 98.757	 -0.631
77648	  0.061	  0.048	  0.743	  0.333	  0.107	 -9.786	 -0.002	  0.004	  0.004	 32.200	 98.746	  0.368
77698	  0.061	  0.051	  0.739	  0.346	  0.099	 -9.820	 -0.003	  0.003	  0.005	 32.200	 98.757	 -0.631
77748	  0.061	  0.051	  0.743	  0.318	  0.145	 -9.758	 -0.004	  0.002	  0.004	 32.200	 98.746	  0.368
77798	  0.062	  0.051	  0.740	  0.351	  0.115	 -9.757	 -0.003	  0.002	  0.004	 32.200	 98.757	 -0.631
77848	  0.061	  0.052	  0.735	  0.346	  0.134	 -9.767	 -0.004	  0.002	  0.005	 32.200	 98.746	  0.368
77898	  0.062	  0.055	  0.739	  0.326	  0.129	 -9.731	 -0.004	  0.003	  0.003	 32.200	 98.746	  0.368
77948	  0.065	  0.051	  0.742	  0.334	  0.114	 -9.753	 -0.006	  0.001	  0.005	 32.200	 98.746	  0.368
77998	  0.060	  0.050	  0.742	  0.346	  0.116	 -9.780	 -0.005	  0.004	  0.003	 32.200	 98.746	  0.368
78048	  0.063	  0.064	  0.739	  0.337	  0.076	 -9.717	 -0.005	  0.001	  0.004	 32.200	 98.735	  1.367
78098	  0.059	  0.049	  0.745	  0.363	  0.099	 -9.761	 -0.004	  0.003	  0.005	 32.200	 98.746	  0.368
78148	  0.064	  0.053	  0.738	  0.333	  0.114	 -9.780	 -0.003	  0.002	  0.004	 32.200	 98.746	  0.368
78198	  0.064	  0.056	  0.735	  0.308	  0.131	 -9.791	 -0.004	  0.003	  0.003	 32.200	 98.757	 -0.631
78248	  0.062	  0.050	  0.736	  0.309	  0.153	 -9.793	 -0.004	  0.001	  0.003	 32.200	 98.746	  0.368
78298	  0.061	  0.048	  0.741	  0.334	  0.132	 -9.774	 -0.005	  0.004	  0.004	 32.200	 98.746	  0.368
78348	  0.060	  0.050	  0.741	  0.334	  0.136	 -9.761	 -0.004	  0.002	  0.005	 32.200	 98.757	 -0.631
78398	  0.063	  0.051	  0.747	  0.338	  0.093	 -9.781	 -0.005	  0.003	  0.003	 32.200	 98.746	  0.368
78448	  0.062	  0.052	  0.741	  0.334	  0.108	 -9.754	 -0.004	  0.001	  0.003	 32.200	 98.750	  0.005
78498	  0.062	  0.051	  0.741	  0.308	  0.129	 -9.749	 -0.004	  0.003	  0.004	 32.200	 98.757	 -0.631
78548	  0.066	  0.054	  0.740	  0.335	  0.113	 -9.746	 -0.004	  0.003	  0.005	 32.200	 98.757	 -0.631
78598	  0.062	  0.056	  0.741	  0.306	  0.106	 -9.739	 -0.004	  0.003	  0.005	 32.200	 98.757	 -0.631
78648	  0.064	  0.049	  0.743	  0.368	  0.101	 -9.739	 -0.002	  0.003	  0.006	 32.200	 98.746	  0.368
78699	  0.062	  0.050	  0.734	  0.349	  0.080	 -9.798	 -0.004	  0.003	  0.003	 32.200	 98.746	  0.368
78748	  0.062	  0.050	  0.738	  0.345	  0.108	 -9.803	 -0.003	  0.001	  0.002	 32.200	 98.746	  0.368
78798	  0.062	  0.049	  0.740	  0.309	  0.148	 -9.779	 -0.004	  0.003	  0.002	 32.200	 98.757	 -0.631
78848	  0.064	  0.056	  0.733	  0.327	  0.134	 -9.749	 -0.004	  0.003	  0.003	 32.200	 98.746	  0.368
78898	  0.064	  0.052	  0.734	  0.338	  0.096	 -9.791	 -0.006	  0.004	  0.003	 32.200	 98.757	 -0.631
78948	  0.063	  0.049	  0.733	  0.355	  0.104	 -9.752	 -0.004	  0.004	  0.004	 32.200	 98.757	 -0.631
78999	  0.062	  0.052	  0.734	  0.325	  0.083	 -9.766	 -0.002	  0.002	  0.005	 32.200	 98.746	  0.368
79049	  0.059	  0.048	  0.741	  0.362	  0.107	 -9.779	 -0.003	  0.003	  0.004	 32.200	 98.746	  0.368
79099	  0.064	  0.050	  0.738	  0.305	  0.104	 -9.773	 -0.003	  0.003	  0.004	 32.200	 98.746	  0.368
79148	  0.064	  0.053	  0.740	  0.329	  0.113	 -9.762	 -0.003	  0.003	  0.004	 32.200	 98.757	 -0.631
79199	  0.064	  0.050	  0.739	  0.326	  0.126	 -9.730	 -0.004	  0.002	  0.005	 32.200	 98.757	 -0.631
79249	  0.064	  0.052	  0.734	  0.352	  0.157	 -9.756	 -0.004	  0.002	  0.004	 32.200	 98.746	  0.368
79298	  0.061	  0.050	  0.740	  0.361	  0.114	 -9.769	 -0.005	  0.001	  0.004	 32.200	 98.768	 -1.630
