Time	 MagX	 MagY	 MagZ	 AccelX	 AccelY	 AccelZ	 Yaw	 Pitch	 Roll	 Temperature	 Pressure	 Altitude
5267	  0.375	 -0.377	  0.387	  0.061	  0.040	 -9.753	 -0.005	  0.002	 -0.001	 33.100	 99.120	 -99999.000
5314	  0.373	 -0.389	  0.386	  0.041	  0.057	 -9.760	 -0.003	  0.003	  0.001	 33.100	 99.124	 -99999.000
5363	  0.377	 -0.387	  0.387	  0.053	  0.066	 -9.771	 -0.003	  0.002	  0.001	 33.100	 99.109	 -99999.000
5413	  0.377	 -0.383	  0.389	  0.046	  0.069	 -9.738	 -0.003	  0.002	  0.000	 33.100	 99.120	 -99999.000
5463	  0.375	 -0.393	  0.390	  0.055	  0.064	 -9.799	 -0.004	  0.002	 -0.001	 33.100	 99.109	 -99999.000
5513	  0.375	 -0.389	  0.385	  0.041	  0.068	 -9.748	 -0.003	  0.003	 -0.000	 33.100	 99.124	 -99999.000
5563	  0.375	 -0.387	  0.390	  0.059	  0.062	 -9.760	 -0.004	  0.003	  0.001	 33.100	 99.109	 -99999.000
5613	  0.377	 -0.388	  0.388	  0.066	  0.057	 -9.767	 -0.004	  0.002	 -0.000	 33.100	 99.120	 -99999.000
5663	  0.377	 -0.387	  0.386	  0.032	  0.053	 -9.784	 -0.004	  0.002	  0.001	 33.100	 99.120	 -99999.000
5713	  0.377	 -0.383	  0.390	  0.041	  0.086	 -9.760	 -0.003	  0.003	  0.000	 33.100	 99.109	 -99999.000
5763	  0.375	 -0.388	  0.387	  0.039	  0.036	 -9.767	 -0.004	  0.003	  0.001	 33.100	 99.120	 -99999.000
5813	  0.375	 -0.389	  0.384	  0.055	  0.066	 -9.757	 -0.003	  0.002	  0.001	 33.100	 99.109	 -99999.000
5863	  0.377	 -0.387	  0.388	  0.067	  0.069	 -9.719	 -0.004	  0.003	  0.002	 33.100	 99.120	 -99999.000
5912	  0.377	 -0.389	  0.389	  0.048	  0.067	 -9.791	 -0.004	  0.002	  0.001	 33.100	 99.098	 -99999.000
5963	  0.377	 -0.387	  0.390	  0.026	  0.046	 -9.741	 -0.002	  0.003	  0.000	 33.100	 99.113	 -99999.000
6012	  0.376	 -0.379	  0.387	  0.057	  0.052	 -9.781	 -0.004	  0.002	 -0.000	 33.100	 99.109	 -99999.000
6062	  0.377	 -0.387	  0.386	  0.042	  0.035	 -9.731	 -0.005	  0.002	  0.001	 33.100	 99.120	 -99999.000
6112	  0.377	 -0.390	  0.390	  0.036	  0.057	 -9.738	 -0.003	  0.003	  0.000	 33.100	 99.120	 -99999.000
6163	  0.377	 -0.389	  0.386	  0.067	  0.064	 -9.800	 -0.003	  0.001	  0.001	 33.100	 99.124	 -99999.000
6212	  0.375	 -0.388	  0.385	  0.042	  0.068	 -9.745	 -0.004	  0.002	 -0.000	 33.100	 99.120	 -99999.000
6262	  0.379	 -0.389	  0.390	  0.046	  0.061	 -9.748	 -0.003	  0.002	  0.001	 33.100	 99.120	 -99999.000
6314	  0.375	 -0.385	  0.382	  0.067	  0.047	 -9.779	 -0.003	  0.002	  0.000	 33.100	 99.109	 -99999.000
6363	  0.375	 -0.390	  0.389	  0.036	  0.084	 -9.779	 -0.004	  0.002	  0.001	 33.100	 99.116	 -99999.000
6414	  0.377	 -0.381	  0.386	  0.047	  0.053	 -9.740	 -0.003	  0.002	  0.001	 33.100	 99.120	 -99999.000
6463	  0.376	 -0.382	  0.387	  0.054	  0.069	 -9.812	 -0.005	  0.004	  0.000	 33.100	 99.113	 -99999.000
6513	  0.375	 -0.388	  0.387	  0.062	  0.055	 -9.753	 -0.004	  0.003	  0.001	 33.100	 99.120	 -99999.000
6563	  0.375	 -0.390	  0.386	  0.033	  0.049	 -9.779	 -0.004	  0.003	  0.001	 33.100	 99.109	 -99999.000
6613	  0.376	 -0.391	  0.385	  0.052	  0.054	 -9.730	 -0.003	  0.003	  0.001	 33.100	 99.120	 -99999.000
6664	  0.375	 -0.387	  0.385	  0.068	  0.103	 -9.758	 -0.002	  0.002	 -0.000	 33.100	 99.132	 -99999.000
6714	  0.375	 -0.387	  0.390	  0.044	  0.065	 -9.761	 -0.004	  0.003	  0.000	 33.100	 99.113	 -99999.000
6764	  0.375	 -0.384	  0.386	  0.033	  0.072	 -9.760	 -0.003	  0.003	  0.001	 33.100	 99.109	 -99999.000
6814	  0.376	 -0.392	  0.389	  0.046	  0.060	 -9.747	 -0.005	  0.003	  0.001	 33.100	 99.120	 -99999.000
6864	  0.375	 -0.383	  0.383	  0.047	  0.053	 -9.766	 -0.004	  0.002	  0.001	 33.100	 99.109	 -99999.000
6914	  0.378	 -0.378	  0.387	  0.028	  0.075	 -9.736	 -0.005	  0.003	 -0.000	 33.100	 99.120	 -99999.000
6963	  0.378	 -0.389	  0.389	  0.038	  0.061	 -9.743	 -0.004	  0.002	  0.002	 33.100	 99.109	 -99999.000
7013	  0.378	 -0.388	  0.388	  0.029	  0.075	 -9.771	 -0.004	  0.003	  0.001	 33.100	 99.120	 -99999.000
7064	  0.373	 -0.389	  0.383	  0.065	  0.068	 -9.791	 -0.003	  0.003	  0.001	 33.100	 99.109	 -99999.000
7113	  0.375	 -0.385	  0.391	  0.026	  0.087	 -9.754	 -0.003	  0.002	  0.000	 33.100	 99.120	 -99999.000
7163	  0.377	 -0.380	  0.390	  0.069	  0.052	 -9.719	 -0.004	  0.003	  0.000	 33.100	 99.120	 -99999.000
7213	  0.375	 -0.384	  0.387	  0.062	  0.054	 -9.764	 -0.002	  0.003	  0.001	 33.100	 99.109	 -99999.000
7263	  0.376	 -0.391	  0.385	  0.051	  0.049	 -9.742	 -0.003	  0.003	  0.000	 33.100	 99.113	 -99999.000
7313	  0.377	 -0.389	  0.388	  0.059	  0.066	 -9.760	 -0.003	  0.002	  0.001	 33.100	 99.120	 -99999.000
7363	  0.375	 -0.388	  0.386	  0.047	  0.077	 -9.786	 -0.004	  0.003	 -0.001	 33.100	 99.109	 -99999.000
7413	  0.377	 -0.386	  0.378	  0.053	  0.082	 -9.744	 -0.004	  0.003	  0.000	 33.100	 99.120	 -99999.000
7463	  0.377	 -0.387	  0.385	  0.058	  0.052	 -9.749	 -0.004	  0.002	  0.002	 33.100	 99.109	 -99999.000
7513	  0.379	 -0.385	  0.389	  0.028	  0.085	 -9.777	 -0.004	  0.002	 -0.000	 33.100	 99.120	 -99999.000
7563	  0.375	 -0.390	  0.386	  0.026	  0.055	 -9.747	 -0.005	  0.002	 -0.001	 33.100	 99.116	 -99999.000
7613	  0.375	 -0.385	  0.386	  0.054	  0.052	 -9.717	 -0.003	  0.003	 -0.001	 33.100	 99.105	 -99999.000
7664	  0.377	 -0.392	  0.391	  0.045	  0.066	 -9.729	 -0.003	  0.002	  0.000	 33.100	 99.120	 -99999.000
7713	  0.377	 -0.387	  0.390	  0.043	  0.050	 -9.777	 -0.003	  0.004	  0.001	 33.100	 99.120	 -99999.000
7763	  0.375	 -0.384	  0.387	  0.048	  0.068	 -9.768	 -0.004	  0.003	  0.001	 33.100	 99.124	 -99999.000
7813	  0.377	 -0.388	  0.385	  0.051	  0.042	 -9.753	 -0.004	  0.003	  0.000	 33.100	 99.120	 -99999.000
7863	  0.375	 -0.387	  0.386	  0.045	  0.044	 -9.750	 -0.003	  0.002	  0.000	 33.100	 99.109	 -99999.000
7913	  0.377	 -0.386	  0.391	  0.044	  0.070	 -9.763	 -0.004	  0.003	  0.001	 33.100	 99.120	 -99999.000
7963	  0.378	 -0.389	  0.381	  0.041	  0.066	 -9.768	 -0.004	  0.002	  0.001	 33.100	 99.132	 -99999.000
8013	  0.377	 -0.384	  0.387	  0.054	  0.067	 -9.752	 -0.003	  0.003	  0.000	 33.100	 99.132	 -99999.000
8063	  0.375	 -0.386	  0.386	  0.046	  0.051	 -9.747	 -0.003	  0.003	  0.001	 33.100	 99.109	 -99999.000
8113	  0.375	 -0.389	  0.384	  0.043	  0.079	 -9.784	 -0.004	  0.003	  0.001	 33.100	 99.120	 -99999.000
8163	  0.377	 -0.384	  0.391	  0.007	  0.056	 -9.780	 -0.004	  0.003	  0.001	 33.100	 99.124	 -99999.000
8213	  0.378	 -0.389	  0.388	  0.047	  0.048	 -9.746	 -0.004	  0.002	  0.000	 33.100	 99.120	 -99999.000
8263	  0.378	 -0.390	  0.388	  0.057	  0.059	 -9.727	 -0.004	  0.003	  0.002	 33.100	 99.109	 -99999.000
8313	  0.375	 -0.389	  0.386	  0.053	  0.058	 -9.748	 -0.003	  0.002	  0.000	 33.100	 99.109	 -99999.000
8363	  0.377	 -0.387	  0.388	  0.056	  0.037	 -9.792	 -0.004	  0.002	  0.000	 33.100	 99.120	 -99999.000
8413	  0.377	 -0.388	  0.390	  0.061	  0.054	 -9.790	 -0.004	  0.003	  0.000	 33.100	 99.113	 -99999.000
8463	  0.375	 -0.389	  0.387	  0.046	  0.081	 -9.752	 -0.002	  0.002	  0.001	 33.100	 99.105	 -99999.000
8513	  0.377	 -0.390	  0.386	  0.028	  0.047	 -9.755	 -0.003	  0.003	  0.001	 33.100	 99.120	 -99999.000
8563	  0.378	 -0.388	  0.389	  0.042	  0.064	 -9.776	 -0.004	  0.002	 -0.000	 33.100	 99.120	 -99999.000
8613	  0.379	 -0.386	  0.387	  0.049	  0.048	 -9.730	 -0.003	  0.003	  0.000	 33.100	 99.120	 -99999.000
8663	  0.377	 -0.385	  0.389	  0.041	  0.050	 -9.763	 -0.004	  0.003	  0.001	 33.100	 99.113	 -99999.000
8713	  0.377	 -0.389	  0.384	  0.051	  0.059	 -9.761	 -0.003	  0.003	 -0.000	 33.100	 99.120	 -99999.000
8763	  0.377	 -0.386	  0.385	  0.046	  0.047	 -9.750	 -0.003	  0.002	  0.000	 33.100	 99.120	 -99999.000
8813	  0.375	 -0.388	  0.385	  0.068	  0.070	 -9.731	 -0.004	  0.002	  0.000	 33.100	 99.120	 -99999.000
8863	  0.377	 -0.387	  0.389	  0.074	  0.061	 -9.782	 -0.003	  0.003	  0.000	 33.100	 99.109	 -99999.000
8913	  0.377	 -0.389	  0.385	  0.037	  0.064	 -9.793	 -0.003	  0.001	  0.000	 33.100	 99.120	 -99999.000
8963	  0.377	 -0.387	  0.387	  0.044	  0.056	 -9.756	 -0.003	  0.003	  0.001	 33.100	 99.120	 -99999.000
9013	  0.376	 -0.391	  0.389	  0.035	  0.063	 -9.777	 -0.004	  0.003	  0.000	 33.100	 99.120	 -99999.000
9063	  0.375	 -0.381	  0.389	  0.047	  0.074	 -9.752	 -0.003	  0.002	  0.001	 33.100	 99.120	 -99999.000
9113	  0.378	 -0.390	  0.388	  0.044	  0.054	 -9.756	 -0.003	  0.003	  0.001	 33.100	 99.120	 -99999.000
9163	  0.375	 -0.386	  0.384	  0.049	  0.042	 -9.781	 -0.003	  0.002	  0.001	 33.100	 99.120	 -99999.000
9213	  0.377	 -0.386	  0.387	  0.067	  0.046	 -9.766	 -0.003	  0.003	  0.000	 33.100	 99.120	 -99999.000
9263	  0.375	 -0.388	  0.384	  0.037	  0.047	 -9.754	 -0.004	  0.003	  0.001	 33.100	 99.109	 -99999.000
9313	  0.376	 -0.391	  0.385	  0.048	  0.073	 -9.774	 -0.004	  0.002	  0.002	 33.100	 99.109	 -99999.000
9363	  0.375	 -0.389	  0.387	  0.062	  0.085	 -9.770	 -0.003	  0.004	  0.001	 33.100	 99.109	 -99999.000
9413	  0.375	 -0.387	  0.389	  0.055	  0.071	 -9.772	 -0.003	  0.002	  0.000	 33.100	 99.109	 -99999.000
9463	  0.377	 -0.390	  0.386	  0.055	  0.056	 -9.801	 -0.003	  0.002	  0.001	 33.100	 99.109	 -99999.000
9513	  0.377	 -0.390	  0.388	  0.043	  0.063	 -9.778	 -0.003	  0.003	  0.001	 33.100	 99.120	 -99999.000
9563	  0.375	 -0.388	  0.389	  0.058	  0.054	 -9.786	 -0.004	  0.002	  0.000	 33.100	 99.120	 -99999.000
9613	  0.374	 -0.385	  0.387	  0.029	  0.053	 -9.772	 -0.003	  0.003	  0.001	 33.100	 99.120	 -99999.000
9663	  0.377	 -0.383	  0.390	  0.063	  0.047	 -9.744	 -0.003	  0.003	 -0.001	 33.100	 99.124	 -99999.000
9713	  0.377	 -0.387	  0.387	  0.076	  0.064	 -9.764	 -0.003	  0.003	 -0.000	 33.100	 99.113	 -99999.000
9763	  0.377	 -0.387	  0.386	  0.058	  0.080	 -9.759	 -0.003	  0.003	  0.001	 33.100	 99.124	 -99999.000
9813	  0.374	 -0.386	  0.386	  0.056	  0.049	 -9.748	 -0.003	  0.003	 -0.000	 33.100	 99.109	 -99999.000
9863	  0.375	 -0.389	  0.387	  0.063	  0.061	 -9.775	 -0.004	  0.002	 -0.001	 33.100	 99.109	 -99999.000
9913	  0.380	 -0.383	  0.387	  0.069	  0.056	 -9.770	 -0.003	  0.004	 -0.000	 33.100	 99.120	 -99999.000
9963	  0.375	 -0.385	  0.389	  0.019	  0.073	 -9.755	 -0.004	  0.002	 -0.000	 33.100	 99.120	 -99999.000
10013	  0.376	 -0.391	  0.388	  0.062	  0.044	 -9.744	 -0.005	  0.002	  0.000	 33.100	 99.124	 -99999.000
10063	  0.377	 -0.388	  0.388	  0.053	  0.063	 -9.768	 -0.004	  0.003	  0.000	 33.100	 99.120	 -99999.000
10113	  0.375	 -0.388	  0.391	  0.048	  0.070	 -9.748	 -0.003	  0.003	  0.002	 33.100	 99.120	 -99999.000
10163	  0.375	 -0.388	  0.384	  0.040	  0.055	 -9.723	 -0.004	  0.004	  0.001	 33.100	 99.116	 -99999.000
10213	  0.377	 -0.388	  0.390	  0.039	  0.043	 -9.772	 -0.004	  0.002	  0.000	 33.100	 99.109	 -99999.000
10263	  0.377	 -0.386	  0.386	  0.061	  0.051	 -9.751	 -0.002	  0.002	  0.001	 33.100	 99.120	 -99999.000
10313	  0.377	 -0.383	  0.386	  0.053	  0.034	 -9.773	 -0.003	  0.002	  0.001	 33.100	 99.109	 -99999.000
10363	  0.375	 -0.389	  0.386	  0.043	  0.061	 -9.752	 -0.003	  0.002	  0.001	 33.100	 99.120	 -99999.000
10413	  0.377	 -0.390	  0.389	  0.048	  0.083	 -9.782	 -0.003	  0.003	  0.001	 33.100	 99.109	 -99999.000
10463	  0.379	 -0.386	  0.388	  0.046	  0.065	 -9.750	 -0.004	  0.002	  0.001	 33.100	 99.120	 -99999.000
10513	  0.375	 -0.388	  0.383	  0.044	  0.054	 -9.757	 -0.004	  0.003	  0.001	 33.100	 99.109	 -99999.000
10563	  0.377	 -0.388	  0.389	  0.056	  0.046	 -9.771	 -0.004	  0.002	  0.000	 33.100	 99.124	 -99999.000
10613	  0.375	 -0.387	  0.386	  0.062	  0.089	 -9.745	 -0.003	  0.002	  0.000	 33.100	 99.120	 -99999.000
10663	  0.377	 -0.390	  0.386	  0.046	  0.059	 -9.771	 -0.004	  0.000	  0.000	 33.100	 99.109	 -99999.000
10713	  0.375	 -0.389	  0.385	  0.020	  0.053	 -9.738	 -0.003	  0.001	  0.001	 33.100	 99.109	 -99999.000
10763	  0.377	 -0.386	  0.389	  0.050	  0.074	 -9.787	 -0.005	  0.001	  0.000	 33.100	 99.120	 -99999.000
10813	  0.375	 -0.389	  0.386	  0.062	  0.070	 -9.773	 -0.003	  0.002	  0.000	 33.100	 99.109	 -99999.000
10863	  0.377	 -0.388	  0.388	  0.045	  0.056	 -9.756	 -0.004	  0.002	  0.001	 33.100	 99.109	 -99999.000
10913	  0.375	 -0.388	  0.384	  0.049	  0.057	 -9.763	 -0.003	  0.001	  0.001	 33.100	 99.120	 -99999.000
10963	  0.375	 -0.389	  0.387	  0.051	  0.047	 -9.783	 -0.004	  0.003	 -0.000	 33.100	 99.109	 -99999.000
11013	  0.375	 -0.387	  0.383	  0.034	  0.035	 -9.728	 -0.003	  0.002	  0.001	 33.100	 99.109	 -99999.000
11063	  0.377	 -0.389	  0.388	  0.039	  0.049	 -9.715	 -0.004	  0.002	  0.002	 33.100	 99.120	 -99999.000
11113	  0.377	 -0.387	  0.389	  0.046	  0.063	 -9.741	 -0.004	  0.002	  0.001	 33.100	 99.120	 -99999.000
11163	  0.375	 -0.388	  0.389	  0.030	  0.074	 -9.812	 -0.004	  0.002	  0.001	 33.100	 99.120	 -99999.000
11213	  0.377	 -0.387	  0.389	  0.049	  0.058	 -9.763	 -0.003	  0.003	  0.000	 33.100	 99.109	 -99999.000
15963	  0.374	 -0.385	  0.387	  0.057	  0.076	 -9.781	 -0.004	  0.004	  0.001	 33.100	 99.120	 -0.386
16013	  0.377	 -0.383	  0.389	  0.083	  0.056	 -9.778	 -0.004	  0.002	  0.001	 33.100	 99.120	 -0.386
16063	  0.379	 -0.387	  0.388	  0.044	  0.066	 -9.731	 -0.004	  0.002	  0.000	 33.100	 99.124	 -0.749
16113	  0.377	 -0.385	  0.387	  0.052	  0.055	 -9.792	 -0.003	  0.003	  0.000	 33.100	 99.120	 -0.386
16163	  0.375	 -0.387	  0.389	  0.072	  0.059	 -9.764	 -0.002	  0.003	  0.001	 33.100	 99.113	  0.250
16213	  0.377	 -0.391	  0.390	  0.060	  0.044	 -9.779	 -0.004	  0.002	 -0.001	 33.100	 99.098	  1.613
16263	  0.377	 -0.388	  0.384	  0.039	  0.071	 -9.786	 -0.004	  0.001	 -0.000	 33.100	 99.109	  0.613
16313	  0.377	 -0.388	  0.389	  0.058	  0.057	 -9.743	 -0.003	  0.003	  0.001	 33.100	 99.120	 -0.386
16363	  0.379	 -0.384	  0.388	  0.023	  0.084	 -9.806	 -0.003	  0.002	  0.001	 33.100	 99.109	  0.613
16413	  0.377	 -0.389	  0.388	  0.041	  0.050	 -9.750	 -0.002	  0.003	  0.001	 33.100	 99.109	  0.613
16463	  0.375	 -0.390	  0.389	  0.051	  0.078	 -9.769	 -0.004	  0.003	  0.000	 33.100	 99.109	  0.613
16513	  0.377	 -0.388	  0.385	  0.068	  0.062	 -9.767	 -0.004	  0.003	  0.000	 33.100	 99.113	  0.250
16563	  0.377	 -0.387	  0.385	  0.062	  0.062	 -9.733	 -0.004	  0.003	  0.001	 33.100	 99.124	 -0.749
16613	  0.377	 -0.380	  0.386	  0.033	  0.062	 -9.761	 -0.003	  0.003	  0.001	 33.100	 99.120	 -0.386
16663	  0.377	 -0.387	  0.390	  0.057	  0.059	 -9.772	 -0.002	  0.001	 -0.000	 33.100	 99.109	  0.613
16713	  0.377	 -0.385	  0.386	  0.032	  0.048	 -9.770	 -0.003	  0.003	  0.001	 33.100	 99.113	  0.250
16763	  0.377	 -0.388	  0.389	  0.088	  0.028	 -9.736	 -0.003	  0.002	  0.000	 33.100	 99.120	 -0.386
16813	  0.377	 -0.387	  0.389	  0.042	  0.069	 -9.752	 -0.004	  0.003	  0.002	 33.100	 99.113	  0.250
16863	  0.377	 -0.385	  0.386	  0.041	  0.071	 -9.745	 -0.002	  0.003	  0.001	 33.100	 99.120	 -0.386
16913	  0.377	 -0.388	  0.389	  0.041	  0.043	 -9.774	 -0.003	  0.004	  0.001	 33.100	 99.113	  0.250
16964	  0.377	 -0.387	  0.390	  0.066	  0.065	 -9.770	 -0.004	  0.002	  0.002	 33.100	 99.109	  0.613
17013	  0.377	 -0.388	  0.388	  0.024	  0.056	 -9.783	 -0.003	  0.002	  0.001	 33.100	 99.124	 -0.749
17063	  0.378	 -0.378	  0.385	  0.062	  0.073	 -9.729	 -0.004	  0.002	 -0.001	 33.100	 99.113	  0.250
17113	  0.377	 -0.388	  0.386	  0.045	  0.061	 -9.772	 -0.003	  0.002	  0.001	 33.100	 99.109	  0.613
17163	  0.377	 -0.389	  0.385	  0.042	  0.084	 -9.760	 -0.003	  0.002	  0.001	 33.100	 99.113	  0.250
17213	  0.377	 -0.387	  0.388	  0.061	  0.065	 -9.757	 -0.004	  0.002	  0.002	 33.100	 99.124	 -0.749
17263	  0.377	 -0.388	  0.388	  0.050	  0.056	 -9.773	 -0.003	  0.001	  0.000	 33.100	 99.113	  0.250
17313	  0.377	 -0.383	  0.390	  0.043	  0.057	 -9.763	 -0.003	  0.002	  0.000	 33.100	 99.124	 -0.749
17363	  0.379	 -0.386	  0.389	  0.055	  0.067	 -9.740	 -0.005	  0.003	  0.001	 33.100	 99.124	 -0.749
17414	  0.375	 -0.390	  0.386	  0.065	  0.052	 -9.756	 -0.004	  0.002	  0.000	 33.100	 99.124	 -0.749
17463	  0.375	 -0.389	  0.387	  0.071	  0.058	 -9.774	 -0.003	  0.001	  0.001	 33.100	 99.113	  0.250
17514	  0.379	 -0.384	  0.388	  0.048	  0.055	 -9.773	 -0.003	  0.003	  0.001	 33.100	 99.109	  0.613
17564	  0.379	 -0.387	  0.387	  0.064	  0.052	 -9.766	 -0.003	  0.003	  0.000	 33.100	 99.120	 -0.386
17614	  0.377	 -0.387	  0.388	  0.066	  0.038	 -9.756	 -0.005	  0.003	 -0.000	 33.100	 99.109	  0.613
17664	  0.377	 -0.390	  0.384	  0.072	  0.062	 -9.749	 -0.002	  0.003	  0.000	 33.100	 99.109	  0.613
17714	  0.375	 -0.388	  0.384	  0.053	  0.043	 -9.776	 -0.004	  0.002	  0.001	 33.100	 99.120	 -0.386
17764	  0.375	 -0.389	  0.387	  0.049	  0.056	 -9.761	 -0.003	  0.002	 -0.000	 33.100	 99.120	 -0.386
17814	  0.379	 -0.385	  0.387	  0.025	  0.039	 -9.777	 -0.003	  0.003	  0.000	 33.100	 99.113	  0.250
17864	  0.376	 -0.383	  0.390	  0.059	  0.079	 -9.757	 -0.003	  0.001	  0.000	 33.100	 99.124	 -0.749
17914	  0.377	 -0.386	  0.389	  0.051	  0.057	 -9.768	 -0.002	  0.003	  0.001	 33.100	 99.113	  0.250
17964	  0.377	 -0.388	  0.388	  0.052	  0.081	 -9.752	 -0.004	  0.002	  0.001	 33.100	 99.109	  0.613
18014	  0.374	 -0.386	  0.385	  0.052	  0.059	 -9.743	 -0.003	  0.001	 -0.000	 33.100	 99.120	 -0.386
18064	  0.375	 -0.384	  0.386	  0.058	  0.052	 -9.764	 -0.003	  0.003	  0.001	 33.100	 99.109	  0.613
18114	  0.377	 -0.388	  0.388	  0.068	  0.072	 -9.756	 -0.003	  0.002	  0.001	 33.100	 99.116	 -0.023
18164	  0.377	 -0.387	  0.386	  0.027	  0.081	 -9.746	 -0.005	  0.003	  0.001	 33.100	 99.109	  0.613
18214	  0.375	 -0.387	  0.387	  0.064	  0.049	 -9.772	 -0.006	  0.004	 -0.001	 33.100	 99.124	 -0.749
18264	  0.375	 -0.389	  0.381	  0.075	  0.056	 -9.767	 -0.004	  0.004	  0.000	 33.100	 99.109	  0.613
18313	  0.378	 -0.389	  0.388	  0.033	  0.066	 -9.776	 -0.003	  0.001	 -0.001	 33.100	 99.109	  0.613
18363	  0.377	 -0.389	  0.391	  0.058	  0.060	 -9.791	 -0.003	  0.003	  0.000	 33.100	 99.120	 -0.386
18413	  0.377	 -0.386	  0.390	  0.061	  0.057	 -9.783	 -0.004	  0.003	  0.000	 33.100	 99.132	 -1.476
18463	  0.377	 -0.386	  0.389	  0.065	  0.057	 -9.774	 -0.004	  0.001	  0.000	 33.100	 99.109	  0.613
18513	  0.377	 -0.387	  0.381	  0.052	  0.077	 -9.757	 -0.003	  0.004	 -0.000	 33.100	 99.113	  0.250
18563	  0.375	 -0.386	  0.386	  0.054	  0.066	 -9.771	 -0.003	  0.002	  0.001	 33.100	 99.113	  0.250
18614	  0.375	 -0.390	  0.387	  0.055	  0.063	 -9.768	 -0.005	  0.003	 -0.000	 33.100	 99.109	  0.613
18664	  0.377	 -0.385	  0.390	  0.032	  0.053	 -9.762	 -0.003	  0.003	  0.000	 33.100	 99.109	  0.613
18714	  0.375	 -0.386	  0.382	  0.059	  0.054	 -9.781	 -0.003	  0.002	  0.000	 33.100	 99.113	  0.250
18764	  0.375	 -0.387	  0.390	  0.026	  0.039	 -9.739	 -0.002	  0.001	  0.000	 33.100	 99.113	  0.250
18814	  0.377	 -0.386	  0.389	  0.039	  0.061	 -9.764	 -0.005	  0.003	  0.002	 33.100	 99.120	 -0.386
18864	  0.377	 -0.389	  0.386	  0.059	  0.082	 -9.739	 -0.003	  0.004	 -0.001	 33.100	 99.124	 -0.749
18914	  0.377	 -0.384	  0.391	  0.038	  0.067	 -9.793	 -0.000	  0.001	 -0.001	 33.100	 99.120	 -0.386
18964	  0.375	 -0.390	  0.385	  0.064	  0.060	 -9.743	 -0.005	  0.002	  0.001	 33.100	 99.120	 -0.386
19014	  0.375	 -0.389	  0.385	  0.033	  0.087	 -9.712	  0.006	  0.001	 -0.001	 33.100	 99.109	  0.613
19064	  0.375	 -0.387	  0.389	  0.822	  0.424	 -9.722	 -0.004	  0.003	 -0.085	 33.100	 99.109	  0.613
19114	  0.380	 -0.381	  0.390	 -0.427	 -0.246	 -9.656	 -0.001	  0.004	 -0.241	 33.100	 99.109	  0.613
19164	  0.384	 -0.383	  0.389	  0.262	  0.199	 -9.672	  0.009	  0.003	 -0.174	 33.100	 99.124	 -0.749
19214	  0.388	 -0.374	  0.390	 -0.212	 -0.315	 -9.761	  0.246	 -0.267	 -0.176	 33.100	 99.120	 -0.386
19264	  0.398	 -0.367	  0.387	  0.150	 -0.130	 -9.738	  0.183	 -0.211	 -0.269	 33.100	 99.124	 -0.749
19314	  0.405	 -0.358	  0.385	 -0.151	 -0.581	 -9.920	  0.213	 -0.239	  0.116	 33.100	 99.109	  0.613
19364	  0.415	 -0.365	  0.378	 -0.655	 -0.012	 -10.523	 -0.539	 -1.152	  0.110	 33.100	 99.113	  0.250
19414	  0.431	 -0.366	  0.349	  0.694	 -0.771	 -9.418	 -0.481	  0.537	 -0.193	 33.100	 99.113	  0.250
19464	  0.415	 -0.370	  0.369	  1.582	  0.605	 -8.694	  0.840	  1.105	 -0.646	 33.100	 99.120	 -0.386
19514	  0.413	 -0.344	  0.388	 -2.119	 -0.414	 -12.849	  0.417	  0.340	 -0.301	 33.100	 99.109	  0.613
19564	  0.411	 -0.342	  0.393	  2.188	 -1.801	 -12.738	  0.297	 -0.564	 -0.313	 33.100	 99.120	 -0.386
19614	  0.426	 -0.328	  0.392	 -1.418	  0.303	 -11.909	  0.452	 -0.899	  0.920	 33.100	 99.124	 -0.749
19664	  0.410	 -0.322	  0.402	 -2.234	 -3.649	 -3.823	 -1.379	  2.997	 -2.098	 33.100	 99.113	  0.250
19714	  0.400	 -0.341	  0.391	  1.625	 -0.578	  6.090	  1.728	 -2.381	 -0.252	 33.100	 99.113	  0.250
19764	  0.466	 -0.283	  0.380	 -2.063	  4.387	 -19.075	  0.736	 -0.797	  0.712	 33.100	 99.109	  0.613
19814	  0.433	 -0.317	  0.379	  4.076	 -7.104	 -1.473	 -0.450	  0.430	 -0.678	 33.100	 99.113	  0.250
19864	  0.469	 -0.320	  0.353	 -4.385	  4.183	 -14.062	  0.342	 -1.565	  1.197	 33.100	 99.120	 -0.386
19914	  0.460	 -0.314	  0.365	  0.301	 -0.865	 -2.615	 -0.638	  0.510	 -0.775	 33.100	 99.120	 -0.386
19963	  0.457	 -0.329	  0.359	 -3.523	  6.654	 -13.014	  0.642	  0.763	  0.048	 33.100	 99.120	 -0.386
20013	  0.475	 -0.301	  0.356	 -0.411	 -0.296	 -10.229	  1.243	 -0.323	 -0.224	 33.100	 99.113	  0.250
20063	  0.475	 -0.292	  0.360	 -1.347	 -5.095	 -12.226	 -0.845	 -0.139	 -0.851	 33.100	 99.109	  0.613
20114	  0.505	 -0.258	  0.352	 -2.079	  3.583	 -14.073	  0.811	 -0.676	 -0.654	 33.100	 99.109	  0.613
20163	  0.466	 -0.249	  0.379	  2.452	 -0.335	 -1.063	 -0.584	  2.688	  0.839	 33.100	 99.113	  0.250
20213	  0.423	 -0.318	  0.384	 -1.683	 -1.806	 -15.671	 -2.595	 -0.259	 -0.318	 33.100	 99.124	 -0.749
20263	  0.457	 -0.293	  0.368	 -1.806	  0.480	 -15.215	  2.824	 -0.578	 -0.341	 33.100	 99.124	 -0.749
20313	  0.431	 -0.250	  0.401	  5.797	 -1.867	  1.844	  0.222	  2.209	  0.727	 33.100	 99.109	  0.613
20364	  0.435	 -0.296	  0.382	 -7.497	  3.536	 -17.396	 -1.145	 -2.264	 -0.571	 33.100	 99.109	  0.613
20413	  0.466	 -0.243	  0.373	  7.260	 -6.999	 -8.564	  1.976	  0.378	 -0.641	 33.100	 99.109	  0.613
20463	  0.415	 -0.290	  0.398	  1.496	 -2.019	 -5.186	 -4.109	  1.657	  1.170	 33.100	 99.113	  0.250
20513	  0.485	 -0.282	  0.347	 -7.500	 -5.394	 -22.805	  3.939	 -4.817	 -2.498	 33.100	 99.113	  0.250
20563	  0.487	 -0.178	  0.392	  4.958	  7.345	  4.248	 -0.618	  3.459	  0.594	 33.100	 99.113	  0.250
20613	  0.458	 -0.306	  0.362	 -5.972	  2.776	 -12.357	 -3.290	 -1.501	  0.174	 33.100	 99.124	 -0.749
20663	  0.500	 -0.240	  0.360	 -1.975	 -3.941	 -15.168	  4.697	 -0.616	 -0.923	 33.100	 99.109	  0.613
20713	  0.465	 -0.247	  0.391	 -0.586	 -1.721	 -7.483	 -4.944	  1.591	  1.021	 33.100	 99.113	  0.250
20763	  0.481	 -0.294	  0.353	 -6.495	  0.348	 -13.428	  2.344	 -2.760	 -1.316	 33.100	 99.109	  0.613
20813	  0.486	 -0.230	  0.381	  2.538	  3.480	 -1.454	 -0.459	  3.417	  1.469	 33.100	 99.109	  0.613
20863	  0.444	 -0.322	  0.374	 -8.086	  3.984	 -5.787	 -2.564	 -1.086	 -0.195	 33.100	 99.124	 -0.749
20913	  0.464	 -0.278	  0.366	  4.708	 -3.928	 -8.699	  3.416	  2.330	  0.469	 33.100	 99.113	  0.250
20963	  0.391	 -0.358	  0.368	  4.502	 -3.168	 -4.542	 -5.435	  1.384	  0.313	 33.100	 99.109	  0.613
21013	  0.462	 -0.311	  0.343	 -2.463	 -3.336	 -25.254	  2.983	 -5.209	 -1.551	 33.100	 99.102	  1.249
21063	  0.445	 -0.287	  0.368	  5.764	 -0.025	  8.232	 -0.223	  3.401	  1.445	 33.100	 99.113	  0.250
21113	  0.441	 -0.313	  0.366	 -3.756	  2.343	 -26.081	 -2.556	 -1.625	 -1.325	 33.100	 99.120	 -0.386
21163	  0.459	 -0.290	  0.355	  1.584	 -0.907	 -7.578	  4.111	  0.767	  0.865	 33.100	 99.109	  0.613
21213	  0.434	 -0.285	  0.387	 -4.072	  2.768	 -7.045	 -3.744	  1.140	 -0.126	 33.100	 99.124	 -0.749
21263	  0.434	 -0.338	  0.356	  3.478	  3.810	 -18.603	  1.265	 -2.013	  0.101	 33.100	 99.113	  0.250
21313	  0.465	 -0.288	  0.357	 -2.670	 -1.125	 -3.009	  2.238	  1.644	 -1.364	 33.100	 99.124	 -0.749
21363	  0.455	 -0.247	  0.397	  2.880	 -0.812	 -8.375	 -0.692	 -0.460	  0.093	 33.100	 99.113	  0.250
21413	  0.482	 -0.282	  0.356	 -7.815	  3.106	 -23.754	 -1.080	 -1.717	  0.395	 33.100	 99.136	 -1.839
21463	  0.446	 -0.278	  0.368	  8.744	 -7.794	  8.143	  1.501	  2.626	  0.236	 33.100	 99.120	 -0.386
21513	  0.407	 -0.287	  0.406	 -1.059	  0.743	 -10.252	 -3.021	  0.478	 -0.363	 33.100	 99.109	  0.613
21563	  0.450	 -0.339	  0.347	 -7.341	  5.367	 -25.069	  0.212	 -1.995	  0.104	 33.100	 99.124	 -0.749
21613	  0.423	 -0.305	  0.369	  6.141	  0.882	  7.592	  1.187	  2.377	  0.086	 33.100	 99.109	  0.613
21663	  0.401	 -0.343	  0.371	 -3.399	 -0.108	 -17.360	 -4.834	 -0.671	 -0.099	 33.100	 99.124	 -0.749
21713	  0.423	 -0.356	  0.327	 -0.096	  4.781	 -10.298	  4.423	 -1.464	  0.544	 33.100	 99.109	  0.613
21763	  0.458	 -0.258	  0.372	 -1.152	  1.869	 -6.422	  2.427	  2.180	 -1.124	 33.100	 99.124	 -0.749
21813	  0.431	 -0.302	  0.368	 -1.363	  1.823	 -11.051	 -1.692	  0.318	  1.011	 33.100	 99.113	  0.250
21863	  0.423	 -0.299	  0.379	  0.026	 -2.620	 -9.928	  1.339	 -0.496	 -0.273	 33.100	 99.113	  0.250
21913	  0.444	 -0.282	  0.379	 -0.343	  1.294	 -9.502	 -0.110	  0.136	 -0.137	 33.100	 99.124	 -0.749
21963	  0.444	 -0.272	  0.377	  2.954	 -0.641	 -9.503	 -0.666	 -0.761	  0.024	 33.100	 99.113	  0.250
22013	  0.445	 -0.278	  0.364	  0.579	 -1.147	 -9.741	 -0.455	 -0.133	  0.095	 33.100	 99.120	 -0.386
22063	  0.448	 -0.278	  0.362	 -0.354	  0.138	 -9.606	 -0.089	 -0.026	  0.033	 33.100	 99.109	  0.613
22113	  0.443	 -0.286	  0.360	 -0.064	 -0.429	 -10.151	  0.212	  0.059	  0.219	 33.100	 99.120	 -0.386
22163	  0.442	 -0.288	  0.361	 -0.200	 -0.467	 -10.219	 -0.334	 -0.100	  0.077	 33.100	 99.109	  0.613
22213	  0.445	 -0.295	  0.356	 -0.475	  0.814	 -7.934	  0.121	  0.009	 -0.009	 33.100	 99.120	 -0.386
22264	  0.443	 -0.293	  0.356	 -0.514	 -0.054	 -9.837	  0.018	  0.009	  0.006	 33.100	 99.124	 -0.749
22313	  0.442	 -0.297	  0.358	 -0.392	 -0.025	 -9.851	  0.071	  0.024	 -0.003	 33.100	 99.124	 -0.749
22364	  0.442	 -0.295	  0.357	 -0.414	 -0.016	 -9.801	 -0.026	 -0.003	  0.000	 33.100	 99.113	  0.250
22413	  0.445	 -0.294	  0.357	 -0.438	  0.056	 -9.727	 -0.038	 -0.006	  0.002	 33.100	 99.124	 -0.749
22463	  0.443	 -0.294	  0.350	 -0.421	  0.060	 -9.745	  0.005	  0.005	  0.000	 33.100	 99.120	 -0.386
22513	  0.445	 -0.294	  0.356	 -0.421	  0.014	 -9.736	  0.016	  0.007	 -0.000	 33.100	 99.113	  0.250
22563	  0.444	 -0.296	  0.355	 -0.428	  0.032	 -9.774	 -0.017	 -0.001	 -0.000	 33.100	 99.109	  0.613
22613	  0.446	 -0.297	  0.359	 -0.456	  0.076	 -9.721	 -0.019	 -0.003	 -0.000	 33.100	 99.113	  0.250
22663	  0.444	 -0.296	  0.355	 -0.435	  0.051	 -9.723	  0.010	  0.007	  0.002	 33.100	 99.109	  0.613
22713	  0.441	 -0.297	  0.358	 -0.426	  0.030	 -9.746	  0.006	  0.005	 -0.001	 33.100	 99.109	  0.613
22763	  0.443	 -0.298	  0.356	 -0.432	  0.032	 -9.736	 -0.015	 -0.000	  0.001	 33.100	 99.113	  0.250
22814	  0.442	 -0.298	  0.356	 -0.466	  0.053	 -9.747	 -0.007	  0.002	  0.001	 33.100	 99.113	  0.250
22863	  0.442	 -0.297	  0.354	 -0.417	 -0.060	 -9.871	 -0.010	 -0.003	  0.003	 33.100	 99.113	  0.250
22914	  0.444	 -0.295	  0.358	 -0.461	  0.019	 -9.714	  0.006	  0.003	  0.002	 33.100	 99.132	 -1.476
22964	  0.443	 -0.298	  0.357	 -0.459	  0.015	 -9.774	  0.004	  0.005	 -0.001	 33.100	 99.109	  0.613
23014	  0.443	 -0.296	  0.355	 -0.422	  0.026	 -9.761	 -0.013	  0.000	  0.001	 33.100	 99.113	  0.250
23064	  0.443	 -0.295	  0.355	 -0.427	  0.075	 -9.734	 -0.015	  0.000	  0.001	 33.100	 99.113	  0.250
23114	  0.444	 -0.294	  0.355	 -0.435	  0.045	 -9.729	  0.005	  0.004	  0.001	 33.100	 99.120	 -0.386
23164	  0.443	 -0.294	  0.358	 -0.427	  0.038	 -9.795	 -0.000	  0.003	 -0.000	 33.100	 99.113	  0.250
23214	  0.441	 -0.296	  0.352	 -0.445	  0.047	 -9.758	 -0.007	  0.001	  0.000	 33.100	 99.113	  0.250
23264	  0.443	 -0.297	  0.359	 -0.455	  0.047	 -9.712	  0.004	  0.005	 -0.001	 33.100	 99.124	 -0.749
23314	  0.446	 -0.295	  0.358	 -0.423	  0.013	 -9.779	 -0.001	  0.003	 -0.001	 33.100	 99.113	  0.250
23364	  0.441	 -0.297	  0.358	 -0.441	  0.035	 -9.737	 -0.012	  0.001	  0.001	 33.100	 99.113	  0.250
23414	  0.443	 -0.295	  0.357	 -0.418	  0.028	 -9.711	 -0.003	  0.002	  0.001	 33.100	 99.124	 -0.749
23464	  0.444	 -0.298	  0.357	 -0.444	  0.052	 -9.736	 -0.009	  0.002	  0.000	 33.100	 99.124	 -0.749
23514	  0.444	 -0.300	  0.355	 -0.425	  0.008	 -9.731	  0.003	  0.003	 -0.000	 33.100	 99.124	 -0.749
23564	  0.442	 -0.292	  0.355	 -0.439	  0.057	 -9.753	 -0.003	  0.002	 -0.000	 33.100	 99.120	 -0.386
23614	  0.444	 -0.293	  0.354	 -0.458	  0.045	 -9.713	 -0.002	  0.004	  0.001	 33.100	 99.124	 -0.749
23664	  0.442	 -0.296	  0.356	 -0.427	  0.041	 -9.755	  0.000	  0.004	  0.000	 33.100	 99.102	  1.249
23714	  0.442	 -0.293	  0.357	 -0.451	  0.036	 -9.744	 -0.009	  0.001	  0.001	 33.100	 99.120	 -0.386
23764	  0.441	 -0.298	  0.353	 -0.438	  0.028	 -9.753	 -0.006	  0.002	  0.000	 33.100	 99.124	 -0.749
23814	  0.442	 -0.295	  0.356	 -0.488	  0.045	 -9.753	 -0.003	  0.001	 -0.001	 33.100	 99.113	  0.250
23864	  0.445	 -0.292	  0.358	 -0.417	  0.026	 -9.752	 -0.003	  0.003	  0.002	 33.100	 99.113	  0.250
23914	  0.443	 -0.294	  0.357	 -0.437	  0.054	 -9.722	 -0.003	  0.003	 -0.001	 33.100	 99.120	 -0.386
23964	  0.443	 -0.296	  0.355	 -0.446	  0.029	 -9.789	 -0.005	  0.002	 -0.000	 33.100	 99.120	 -0.386
24014	  0.444	 -0.293	  0.352	 -0.427	  0.039	 -9.752	 -0.002	  0.002	  0.001	 33.100	 99.124	 -0.749
24064	  0.444	 -0.296	  0.357	 -0.455	  0.054	 -9.770	 -0.007	  0.001	  0.000	 33.100	 99.113	  0.250
24114	  0.441	 -0.296	  0.355	 -0.431	  0.051	 -9.751	 -0.004	  0.003	 -0.000	 33.100	 99.113	  0.250
24164	  0.443	 -0.297	  0.356	 -0.448	  0.058	 -9.755	 -0.002	  0.003	 -0.000	 33.100	 99.113	  0.250
24214	  0.443	 -0.295	  0.356	 -0.422	  0.035	 -9.725	 -0.005	  0.002	  0.000	 33.100	 99.124	 -0.749
24264	  0.443	 -0.296	  0.358	 -0.436	  0.059	 -9.740	 -0.002	  0.002	 -0.001	 33.100	 99.124	 -0.749
24314	  0.442	 -0.292	  0.357	 -0.439	  0.025	 -9.740	 -0.002	  0.003	 -0.000	 33.100	 99.120	 -0.386
24364	  0.443	 -0.294	  0.356	 -0.445	  0.051	 -9.733	 -0.005	  0.003	  0.000	 33.100	 99.109	  0.613
24414	  0.443	 -0.293	  0.356	 -0.437	  0.035	 -9.782	 -0.004	  0.002	 -0.000	 33.100	 99.109	  0.613
24464	  0.444	 -0.296	  0.357	 -0.431	  0.035	 -9.753	 -0.003	  0.003	 -0.001	 33.100	 99.113	  0.250
24514	  0.444	 -0.294	  0.359	 -0.442	  0.018	 -9.726	 -0.002	  0.002	  0.001	 33.100	 99.109	  0.613
24564	  0.443	 -0.299	  0.352	 -0.429	  0.047	 -9.776	 -0.004	  0.001	  0.001	 33.100	 99.109	  0.613
24614	  0.443	 -0.297	  0.358	 -0.449	  0.039	 -9.771	 -0.003	  0.004	 -0.001	 33.100	 99.113	  0.250
24664	  0.444	 -0.297	  0.356	 -0.435	  0.042	 -9.769	 -0.003	  0.003	  0.001	 33.100	 99.113	  0.250
24714	  0.443	 -0.297	  0.360	 -0.432	  0.029	 -9.735	 -0.004	  0.002	  0.001	 33.100	 99.109	  0.613
24764	  0.444	 -0.298	  0.355	 -0.452	  0.042	 -9.757	 -0.003	  0.003	  0.001	 33.100	 99.109	  0.613
24814	  0.444	 -0.295	  0.354	 -0.435	  0.056	 -9.774	 -0.004	  0.003	  0.002	 33.100	 99.109	  0.613
24864	  0.442	 -0.294	  0.357	 -0.426	  0.032	 -9.732	 -0.002	  0.004	  0.000	 33.100	 99.113	  0.250
24914	  0.443	 -0.293	  0.355	 -0.461	  0.066	 -9.750	 -0.004	  0.004	  0.001	 33.100	 99.113	  0.250
24964	  0.445	 -0.292	  0.358	 -0.426	  0.052	 -9.732	 -0.003	  0.003	  0.000	 33.100	 99.113	  0.250
25014	  0.443	 -0.296	  0.356	 -0.422	  0.036	 -9.736	 -0.003	  0.003	  0.000	 33.100	 99.098	  1.613
25064	  0.442	 -0.294	  0.356	 -0.443	  0.052	 -9.751	 -0.005	  0.003	  0.001	 33.100	 99.136	 -1.839
25114	  0.440	 -0.297	  0.352	 -0.429	  0.048	 -9.746	 -0.004	  0.002	  0.001	 33.100	 99.109	  0.613
25164	  0.442	 -0.295	  0.357	 -0.427	  0.026	 -9.737	 -0.002	  0.003	  0.001	 33.100	 99.113	  0.250
25214	  0.443	 -0.293	  0.357	 -0.460	  0.036	 -9.726	 -0.003	  0.002	 -0.001	 33.100	 99.124	 -0.749
25264	  0.445	 -0.295	  0.359	 -0.437	  0.042	 -9.746	 -0.003	  0.003	  0.000	 33.100	 99.113	  0.250
25314	  0.444	 -0.297	  0.357	 -0.440	  0.042	 -9.736	 -0.004	  0.002	  0.001	 33.100	 99.113	  0.250
25363	  0.444	 -0.295	  0.354	 -0.441	  0.044	 -9.748	 -0.002	  0.004	  0.000	 33.100	 99.113	  0.250
25413	  0.444	 -0.295	  0.358	 -0.449	  0.024	 -9.729	 -0.003	  0.003	  0.001	 33.100	 99.109	  0.613
25463	  0.445	 -0.292	  0.354	 -0.420	  0.039	 -9.761	 -0.004	  0.003	  0.001	 33.100	 99.109	  0.613
25513	  0.440	 -0.299	  0.352	 -0.434	  0.043	 -9.751	 -0.003	  0.003	  0.001	 33.100	 99.124	 -0.749
25563	  0.444	 -0.293	  0.357	 -0.445	  0.042	 -9.761	 -0.002	  0.005	  0.000	 33.100	 99.109	  0.613
25613	  0.445	 -0.293	  0.357	 -0.445	  0.035	 -9.736	 -0.005	  0.002	 -0.001	 33.100	 99.124	 -0.749
25663	  0.446	 -0.298	  0.355	 -0.454	  0.036	 -9.767	 -0.004	  0.002	  0.000	 33.100	 99.113	  0.250
25713	  0.443	 -0.296	  0.359	 -0.453	  0.038	 -9.770	 -0.003	  0.003	  0.000	 33.100	 99.124	 -0.749
25763	  0.444	 -0.292	  0.356	 -0.442	  0.030	 -9.762	 -0.004	  0.003	  0.001	 33.100	 99.113	  0.250
25813	  0.443	 -0.297	  0.357	 -0.432	  0.057	 -9.741	 -0.003	  0.003	  0.001	 33.100	 99.124	 -0.749
25863	  0.443	 -0.295	  0.358	 -0.459	  0.037	 -9.765	 -0.002	  0.003	  0.001	 33.100	 99.113	  0.250
25913	  0.444	 -0.285	  0.358	 -0.439	  0.058	 -9.765	 -0.004	  0.002	  0.000	 33.100	 99.124	 -0.749
25963	  0.444	 -0.288	  0.358	 -0.437	  0.027	 -9.770	 -0.004	  0.002	  0.000	 33.100	 99.120	 -0.386
26013	  0.443	 -0.289	  0.356	 -0.451	  0.043	 -9.750	 -0.004	  0.002	  0.000	 33.100	 99.113	  0.250
26063	  0.442	 -0.298	  0.357	 -0.426	  0.026	 -9.780	 -0.003	  0.003	  0.000	 33.100	 99.124	 -0.749
26113	  0.442	 -0.294	  0.357	 -0.449	  0.034	 -9.756	 -0.003	  0.003	  0.000	 33.100	 99.113	  0.250
26163	  0.445	 -0.293	  0.359	 -0.450	  0.038	 -9.773	 -0.002	  0.003	  0.001	 33.100	 99.113	  0.250
26213	  0.443	 -0.295	  0.356	 -0.452	  0.047	 -9.775	 -0.003	  0.002	  0.000	 33.100	 99.113	  0.250
26263	  0.442	 -0.294	  0.357	 -0.451	  0.038	 -9.774	 -0.002	  0.002	 -0.001	 33.100	 99.113	  0.250
26313	  0.444	 -0.297	  0.357	 -0.463	  0.058	 -9.776	 -0.004	  0.002	  0.001	 33.100	 99.124	 -0.749
26363	  0.441	 -0.296	  0.357	 -0.429	  0.041	 -9.772	 -0.004	  0.003	  0.000	 33.100	 99.132	 -1.476
26413	  0.443	 -0.298	  0.357	 -0.438	  0.033	 -9.753	 -0.004	  0.002	 -0.000	 33.100	 99.113	  0.250
26463	  0.444	 -0.295	  0.357	 -0.458	  0.052	 -9.773	 -0.005	  0.003	 -0.000	 33.100	 99.124	 -0.749
26513	  0.442	 -0.296	  0.355	 -0.442	  0.048	 -9.743	 -0.003	  0.002	  0.000	 33.100	 99.109	  0.613
26563	  0.444	 -0.293	  0.356	 -0.428	  0.057	 -9.718	 -0.003	  0.003	  0.000	 33.100	 99.124	 -0.749
26613	  0.441	 -0.298	  0.355	 -0.433	  0.051	 -9.743	 -0.004	  0.003	  0.001	 33.100	 99.124	 -0.749
26663	  0.443	 -0.292	  0.359	 -0.446	  0.030	 -9.770	 -0.003	  0.003	 -0.000	 33.100	 99.109	  0.613
26713	  0.441	 -0.295	  0.355	 -0.437	  0.062	 -9.718	 -0.004	  0.002	 -0.000	 33.100	 99.120	 -0.386
26763	  0.442	 -0.296	  0.359	 -0.418	  0.055	 -9.772	 -0.002	  0.003	 -0.001	 33.100	 99.113	  0.250
26813	  0.442	 -0.296	  0.355	 -0.443	  0.045	 -9.761	 -0.004	  0.003	 -0.000	 33.100	 99.109	  0.613
26863	  0.444	 -0.297	  0.354	 -0.455	  0.034	 -9.772	 -0.004	  0.003	  0.000	 33.100	 99.113	  0.250
26913	  0.445	 -0.293	  0.356	 -0.446	  0.055	 -9.774	 -0.005	  0.003	  0.000	 33.100	 99.120	 -0.386
26963	  0.445	 -0.297	  0.357	 -0.457	  0.048	 -9.755	 -0.004	  0.002	  0.000	 33.100	 99.124	 -0.749
27013	  0.444	 -0.295	  0.352	 -0.458	  0.041	 -9.767	 -0.003	  0.003	  0.001	 33.100	 99.109	  0.613
27063	  0.444	 -0.293	  0.356	 -0.411	  0.043	 -9.717	 -0.004	  0.002	  0.001	 33.100	 99.124	 -0.749
27113	  0.442	 -0.293	  0.356	 -0.431	  0.040	 -9.745	 -0.003	  0.002	  0.000	 33.100	 99.109	  0.613
27163	  0.443	 -0.297	  0.359	 -0.453	  0.045	 -9.771	 -0.003	  0.004	 -0.000	 33.100	 99.124	 -0.749
27213	  0.444	 -0.297	  0.355	 -0.450	  0.065	 -9.767	 -0.004	  0.003	  0.001	 33.100	 99.113	  0.250
27263	  0.443	 -0.297	  0.355	 -0.451	  0.029	 -9.743	 -0.004	  0.003	  0.001	 33.100	 99.113	  0.250
27313	  0.443	 -0.297	  0.359	 -0.463	  0.036	 -9.761	 -0.003	  0.001	 -0.000	 33.100	 99.113	  0.250
27363	  0.442	 -0.298	  0.355	 -0.442	  0.038	 -9.753	 -0.004	  0.003	  0.000	 33.100	 99.124	 -0.749
27413	  0.444	 -0.294	  0.356	 -0.419	  0.033	 -9.755	 -0.004	  0.001	  0.000	 33.100	 99.120	 -0.386
27463	  0.443	 -0.295	  0.354	 -0.435	  0.048	 -9.758	 -0.004	  0.003	  0.002	 33.100	 99.113	  0.250
27513	  0.443	 -0.295	  0.357	 -0.456	  0.035	 -9.763	 -0.003	  0.002	 -0.000	 33.100	 99.113	  0.250
27563	  0.441	 -0.292	  0.357	 -0.429	  0.057	 -9.739	 -0.005	  0.002	  0.001	 33.100	 99.109	  0.613
27613	  0.443	 -0.298	  0.354	 -0.424	  0.026	 -9.736	 -0.002	  0.003	  0.001	 33.100	 99.113	  0.250
27663	  0.442	 -0.298	  0.357	 -0.441	  0.047	 -9.766	 -0.004	  0.003	 -0.001	 33.100	 99.124	 -0.749
27713	  0.443	 -0.298	  0.356	 -0.439	  0.060	 -9.743	 -0.003	  0.003	 -0.000	 33.100	 99.113	  0.250
27763	  0.443	 -0.294	  0.354	 -0.408	  0.036	 -9.715	 -0.003	  0.002	 -0.000	 33.100	 99.124	 -0.749
27813	  0.442	 -0.298	  0.355	 -0.459	  0.043	 -9.766	 -0.003	  0.003	  0.001	 33.100	 99.120	 -0.386
27863	  0.442	 -0.297	  0.355	 -0.443	  0.054	 -9.766	 -0.004	  0.002	 -0.000	 33.100	 99.113	  0.250
27914	  0.442	 -0.294	  0.354	 -0.442	  0.039	 -9.726	 -0.004	  0.002	  0.000	 33.100	 99.109	  0.613
27963	  0.444	 -0.297	  0.354	 -0.422	  0.041	 -9.750	 -0.002	  0.002	  0.000	 33.100	 99.124	 -0.749
28013	  0.442	 -0.289	  0.357	 -0.428	  0.049	 -9.743	 -0.004	  0.002	  0.000	 33.100	 99.124	 -0.749
28063	  0.442	 -0.291	  0.356	 -0.454	  0.058	 -9.747	 -0.004	  0.002	  0.001	 33.100	 99.113	  0.250
28113	  0.442	 -0.297	  0.356	 -0.419	  0.042	 -9.751	 -0.005	  0.002	  0.000	 33.100	 99.109	  0.613
28163	  0.442	 -0.293	  0.358	 -0.453	  0.045	 -9.744	 -0.004	  0.001	  0.001	 33.100	 99.113	  0.250
28213	  0.441	 -0.296	  0.358	 -0.437	  0.048	 -9.765	 -0.001	  0.004	  0.000	 33.100	 99.124	 -0.749
28263	  0.444	 -0.292	  0.358	 -0.438	  0.045	 -9.758	 -0.005	  0.002	  0.001	 33.100	 99.113	  0.250
28313	  0.442	 -0.295	  0.356	 -0.457	  0.053	 -9.783	 -0.004	  0.003	  0.001	 33.100	 99.120	 -0.386
28364	  0.443	 -0.289	  0.357	 -0.442	  0.066	 -9.786	 -0.001	  0.003	 -0.000	 33.100	 99.132	 -1.476
28414	  0.442	 -0.296	  0.355	 -0.444	  0.044	 -9.755	 -0.005	  0.002	  0.000	 33.100	 99.124	 -0.749
28464	  0.443	 -0.295	  0.352	 -0.436	  0.044	 -9.753	 -0.003	  0.002	 -0.000	 33.100	 99.113	  0.250
28514	  0.443	 -0.296	  0.349	 -0.421	  0.042	 -9.785	 -0.004	  0.003	 -0.000	 33.100	 99.124	 -0.749
28564	  0.441	 -0.297	  0.355	 -0.476	  0.030	 -9.756	 -0.004	  0.001	  0.000	 33.100	 99.102	  1.249
28614	  0.444	 -0.294	  0.357	 -0.464	  0.022	 -9.719	 -0.003	  0.004	  0.001	 33.100	 99.113	  0.250
28664	  0.442	 -0.295	  0.356	 -0.430	  0.058	 -9.730	 -0.003	  0.003	  0.001	 33.100	 99.113	  0.250
28714	  0.441	 -0.295	  0.358	 -0.436	  0.034	 -9.757	 -0.005	  0.002	  0.000	 33.100	 99.113	  0.250
28764	  0.444	 -0.294	  0.356	 -0.462	  0.029	 -9.742	 -0.004	  0.002	  0.000	 33.100	 99.113	  0.250
28814	  0.443	 -0.296	  0.357	 -0.473	  0.057	 -9.771	 -0.003	  0.004	  0.001	 33.100	 99.109	  0.613
28864	  0.443	 -0.291	  0.358	 -0.447	  0.031	 -9.763	 -0.004	  0.000	  0.000	 33.100	 99.113	  0.250
28914	  0.443	 -0.294	  0.355	 -0.437	  0.049	 -9.808	 -0.004	  0.003	  0.000	 33.100	 99.113	  0.250
28964	  0.443	 -0.294	  0.356	 -0.418	  0.049	 -9.753	 -0.003	  0.004	 -0.000	 33.100	 99.113	  0.250
29014	  0.442	 -0.296	  0.356	 -0.457	  0.046	 -9.753	 -0.003	  0.002	  0.001	 33.100	 99.113	  0.250
29064	  0.441	 -0.298	  0.351	 -0.454	  0.033	 -9.777	 -0.004	  0.002	  0.000	 33.100	 99.113	  0.250
29114	  0.441	 -0.295	  0.355	 -0.455	  0.040	 -9.758	 -0.005	  0.003	 -0.000	 33.100	 99.113	  0.250
29164	  0.445	 -0.298	  0.355	 -0.442	  0.051	 -9.729	 -0.004	  0.002	  0.000	 33.100	 99.113	  0.250
29214	  0.443	 -0.296	  0.352	 -0.439	  0.068	 -9.770	 -0.003	  0.003	  0.001	 33.100	 99.113	  0.250
29264	  0.443	 -0.296	  0.356	 -0.425	  0.040	 -9.725	 -0.004	  0.001	  0.001	 33.100	 99.113	  0.250
29314	  0.443	 -0.295	  0.357	 -0.425	  0.048	 -9.749	 -0.003	  0.003	 -0.000	 33.100	 99.113	  0.250
29364	  0.442	 -0.299	  0.354	 -0.451	  0.025	 -9.716	 -0.004	  0.003	  0.001	 33.100	 99.113	  0.250
29414	  0.444	 -0.297	  0.358	 -0.440	  0.063	 -9.747	 -0.005	  0.002	  0.001	 33.100	 99.113	  0.250
29464	  0.442	 -0.294	  0.356	 -0.434	  0.039	 -9.749	 -0.003	  0.002	  0.000	 33.100	 99.124	 -0.749
29514	  0.442	 -0.294	  0.355	 -0.452	  0.047	 -9.763	 -0.004	  0.003	 -0.000	 33.100	 99.102	  1.249
29564	  0.443	 -0.295	  0.354	 -0.440	  0.043	 -9.760	 -0.005	  0.003	  0.001	 33.100	 99.113	  0.250
29614	  0.441	 -0.296	  0.359	 -0.447	  0.049	 -9.734	 -0.003	  0.003	 -0.000	 33.100	 99.109	  0.613
29664	  0.444	 -0.294	  0.352	 -0.436	  0.050	 -9.755	 -0.003	  0.003	 -0.000	 33.100	 99.109	  0.613
29714	  0.443	 -0.297	  0.352	 -0.441	  0.031	 -9.769	 -0.003	  0.002	  0.001	 33.100	 99.120	 -0.386
29764	  0.441	 -0.296	  0.360	 -0.437	  0.057	 -9.728	 -0.003	  0.002	  0.001	 33.100	 99.113	  0.250
29814	  0.443	 -0.286	  0.357	 -0.445	  0.052	 -9.748	 -0.004	  0.003	  0.002	 33.100	 99.120	 -0.386
29864	  0.444	 -0.297	  0.357	 -0.446	  0.059	 -9.738	 -0.003	  0.003	 -0.000	 33.100	 99.109	  0.613
29914	  0.443	 -0.295	  0.356	 -0.449	  0.045	 -9.766	 -0.003	  0.003	 -0.001	 33.100	 99.124	 -0.749
29964	  0.443	 -0.299	  0.356	 -0.437	  0.030	 -9.730	  0.010	  0.005	  0.001	 33.100	 99.113	  0.250
30014	  0.443	 -0.296	  0.358	 -0.417	  0.058	 -9.739	 -0.024	 -0.003	  0.000	 33.100	 99.109	  0.613
30064	  0.443	 -0.295	  0.358	 -0.438	  0.081	 -9.749	 -0.000	  0.003	  0.001	 33.100	 99.113	  0.250
30114	  0.442	 -0.296	  0.359	 -0.460	  0.033	 -9.777	  0.009	  0.006	 -0.000	 33.100	 99.113	  0.250
30164	  0.442	 -0.293	  0.357	 -0.443	  0.041	 -9.782	 -0.011	  0.002	  0.000	 33.100	 99.113	  0.250
30214	  0.443	 -0.297	  0.355	 -0.437	  0.048	 -9.756	 -0.010	  0.000	  0.001	 33.100	 99.098	  1.613
30264	  0.442	 -0.298	  0.357	 -0.424	  0.050	 -9.749	  0.007	  0.005	  0.001	 33.100	 99.120	 -0.386
30314	  0.442	 -0.296	  0.359	 -0.472	  0.036	 -9.766	  0.001	  0.002	 -0.001	 33.100	 99.113	  0.250
30364	  0.441	 -0.297	  0.357	 -0.465	  0.050	 -9.745	 -0.012	  0.000	 -0.000	 33.100	 99.113	  0.250
30414	  0.442	 -0.294	  0.352	 -0.448	  0.035	 -9.757	 -0.001	  0.002	 -0.001	 33.100	 99.113	  0.250
30464	  0.442	 -0.294	  0.354	 -0.450	  0.011	 -9.749	  0.004	  0.004	 -0.001	 33.100	 99.109	  0.613
30514	  0.444	 -0.294	  0.358	 -0.447	  0.055	 -9.738	 -0.008	  0.002	  0.001	 33.100	 99.098	  1.613
30564	  0.445	 -0.297	  0.356	 -0.438	  0.075	 -9.773	 -0.007	  0.001	  0.001	 33.100	 99.113	  0.250
30614	  0.442	 -0.299	  0.352	 -0.452	  0.042	 -9.771	 -0.000	  0.004	  0.000	 33.100	 99.113	  0.250
30664	  0.443	 -0.296	  0.356	 -0.449	  0.022	 -9.761	 -0.001	  0.002	 -0.000	 33.100	 99.113	  0.250
30714	  0.444	 -0.299	  0.358	 -0.439	  0.050	 -9.737	 -0.009	  0.002	 -0.000	 33.100	 99.124	 -0.749
30764	  0.443	 -0.293	  0.355	 -0.441	  0.058	 -9.752	 -0.004	  0.002	  0.001	 33.100	 99.124	 -0.749
30814	  0.443	 -0.297	  0.356	 -0.450	  0.032	 -9.752	  0.002	  0.004	 -0.000	 33.100	 99.124	 -0.749
30864	  0.442	 -0.298	  0.355	 -0.432	  0.056	 -9.776	 -0.004	  0.002	 -0.000	 33.100	 99.124	 -0.749
30914	  0.446	 -0.293	  0.356	 -0.433	  0.071	 -9.752	 -0.008	  0.002	  0.000	 33.100	 99.113	  0.250
30964	  0.444	 -0.294	  0.359	 -0.399	  0.045	 -9.760	 -0.000	  0.004	 -0.000	 33.100	 99.113	  0.250
31014	  0.442	 -0.297	  0.351	 -0.453	  0.051	 -9.778	 -0.003	  0.001	 -0.001	 33.100	 99.113	  0.250
31064	  0.443	 -0.298	  0.354	 -0.407	  0.045	 -9.800	 -0.005	  0.003	  0.001	 33.100	 99.109	  0.613
31114	  0.445	 -0.295	  0.358	 -0.445	  0.035	 -9.747	 -0.003	  0.002	  0.001	 33.100	 99.124	 -0.749
31164	  0.443	 -0.300	  0.359	 -0.428	  0.057	 -9.726	 -0.002	  0.003	  0.001	 33.100	 99.113	  0.250
31214	  0.443	 -0.297	  0.359	 -0.454	  0.025	 -9.762	 -0.005	  0.003	  0.002	 33.100	 99.109	  0.613
31264	  0.443	 -0.296	  0.358	 -0.428	  0.041	 -9.768	 -0.004	  0.002	 -0.000	 33.100	 99.109	  0.613
31314	  0.445	 -0.296	  0.358	 -0.434	  0.056	 -9.781	 -0.004	  0.002	 -0.001	 33.100	 99.113	  0.250
31364	  0.443	 -0.289	  0.354	 -0.460	  0.035	 -9.750	 -0.002	  0.002	  0.001	 33.100	 99.113	  0.250
31414	  0.442	 -0.298	  0.357	 -0.428	  0.061	 -9.767	 -0.004	  0.002	  0.000	 33.100	 99.120	 -0.386
31464	  0.444	 -0.298	  0.354	 -0.450	  0.039	 -9.767	 -0.005	  0.003	  0.001	 33.100	 99.124	 -0.749
31514	  0.443	 -0.299	  0.354	 -0.423	  0.066	 -9.767	 -0.001	  0.003	  0.001	 33.100	 99.113	  0.250
31564	  0.441	 -0.295	  0.357	 -0.442	  0.041	 -9.764	 -0.003	  0.002	 -0.000	 33.100	 99.113	  0.250
31614	  0.443	 -0.297	  0.359	 -0.443	  0.044	 -9.736	 -0.006	  0.003	  0.001	 33.100	 99.113	  0.250
31664	  0.444	 -0.294	  0.357	 -0.431	  0.037	 -9.785	 -0.001	  0.004	  0.000	 33.100	 99.113	  0.250
31714	  0.443	 -0.297	  0.355	 -0.437	  0.044	 -9.756	 -0.003	  0.003	  0.002	 33.100	 99.113	  0.250
31764	  0.444	 -0.298	  0.362	 -0.412	  0.039	 -9.747	 -0.004	  0.001	 -0.001	 33.100	 99.113	  0.250
31814	  0.443	 -0.295	  0.358	 -0.458	  0.037	 -9.749	 -0.003	  0.001	  0.001	 33.100	 99.124	 -0.749
31864	  0.445	 -0.294	  0.358	 -0.447	  0.039	 -9.764	 -0.002	  0.002	 -0.002	 33.100	 99.109	  0.613
31914	  0.444	 -0.298	  0.354	 -0.442	  0.040	 -9.756	 -0.002	  0.002	 -0.000	 33.100	 99.113	  0.250
31964	  0.443	 -0.299	  0.356	 -0.423	  0.046	 -9.771	 -0.007	  0.001	 -0.001	 33.100	 99.113	  0.250
32014	  0.444	 -0.295	  0.358	 -0.444	  0.050	 -9.769	 -0.002	  0.003	  0.000	 33.100	 99.124	 -0.749
32064	  0.443	 -0.297	  0.358	 -0.443	  0.042	 -9.772	 -0.002	  0.004	 -0.000	 33.100	 99.136	 -1.839
32114	  0.443	 -0.297	  0.359	 -0.470	  0.065	 -9.788	 -0.006	  0.002	  0.000	 33.100	 99.124	 -0.749
32164	  0.441	 -0.291	  0.354	 -0.422	  0.056	 -9.764	 -0.001	  0.003	  0.000	 33.100	 99.113	  0.250
32214	  0.442	 -0.295	  0.358	 -0.428	  0.039	 -9.758	 -0.000	  0.002	  0.001	 33.100	 99.113	  0.250
32264	  0.444	 -0.296	  0.357	 -0.424	  0.053	 -9.789	 -0.007	  0.004	  0.001	 33.100	 99.124	 -0.749
32314	  0.442	 -0.298	  0.354	 -0.445	  0.055	 -9.767	 -0.004	  0.002	 -0.000	 33.100	 99.113	  0.250
32364	  0.443	 -0.293	  0.352	 -0.429	  0.045	 -9.779	 -0.001	  0.003	  0.001	 33.100	 99.120	 -0.386
32414	  0.443	 -0.294	  0.354	 -0.481	  0.035	 -9.745	 -0.007	  0.002	 -0.000	 33.100	 99.136	 -1.839
32463	  0.443	 -0.297	  0.357	 -0.447	  0.061	 -9.727	 -0.003	  0.003	  0.001	 33.100	 99.124	 -0.749
32513	  0.444	 -0.299	  0.355	 -0.451	  0.036	 -9.735	 -0.003	  0.002	 -0.000	 33.100	 99.109	  0.613
32564	  0.441	 -0.298	  0.352	 -0.436	  0.045	 -9.787	 -0.002	  0.002	  0.001	 33.100	 99.124	 -0.749
32613	  0.444	 -0.297	  0.356	 -0.448	  0.034	 -9.742	 -0.007	  0.003	  0.001	 33.100	 99.113	  0.250
32663	  0.442	 -0.297	  0.355	 -0.444	  0.029	 -9.728	 -0.002	  0.003	  0.001	 33.100	 99.113	  0.250
32713	  0.443	 -0.292	  0.357	 -0.448	  0.070	 -9.765	 -0.004	  0.003	  0.000	 33.100	 99.113	  0.250
32763	  0.445	 -0.295	  0.359	 -0.436	  0.045	 -9.710	 -0.005	  0.001	 -0.000	 33.100	 99.113	  0.250
32813	  0.443	 -0.297	  0.351	 -0.465	  0.057	 -9.749	 -0.002	  0.004	 -0.000	 33.100	 99.124	 -0.749
32863	  0.440	 -0.299	  0.357	 -0.447	  0.032	 -9.739	 -0.002	  0.004	  0.000	 33.100	 99.113	  0.250
32914	  0.444	 -0.298	  0.357	 -0.428	  0.018	 -9.733	 -0.004	  0.001	 -0.000	 33.100	 99.124	 -0.749
32963	  0.443	 -0.298	  0.357	 -0.446	  0.070	 -9.775	 -0.004	  0.003	 -0.001	 33.100	 99.113	  0.250
33013	  0.443	 -0.299	  0.356	 -0.433	  0.039	 -9.738	 -0.003	  0.003	  0.002	 33.100	 99.124	 -0.749
33064	  0.443	 -0.294	  0.358	 -0.457	  0.047	 -9.791	 -0.004	  0.003	  0.000	 33.100	 99.113	  0.250
33113	  0.444	 -0.298	  0.360	 -0.449	  0.057	 -9.724	 -0.003	  0.003	  0.002	 33.100	 99.113	  0.250
33163	  0.443	 -0.294	  0.351	 -0.417	  0.037	 -9.741	 -0.004	  0.003	 -0.001	 33.100	 99.113	  0.250
33213	  0.444	 -0.295	  0.354	 -0.453	  0.047	 -9.739	 -0.003	  0.002	 -0.000	 33.100	 99.109	  0.613
33263	  0.444	 -0.296	  0.355	 -0.444	  0.049	 -9.745	 -0.003	  0.002	  0.001	 33.100	 99.113	  0.250
33313	  0.444	 -0.298	  0.358	 -0.447	  0.046	 -9.749	 -0.004	  0.001	  0.001	 33.100	 99.120	 -0.386
33363	  0.442	 -0.296	  0.354	 -0.426	  0.049	 -9.752	 -0.003	  0.003	  0.001	 33.100	 99.124	 -0.749
33413	  0.443	 -0.297	  0.354	 -0.454	  0.059	 -9.745	 -0.003	  0.004	  0.001	 33.100	 99.113	  0.250
33463	  0.444	 -0.298	  0.357	 -0.420	  0.069	 -9.758	 -0.005	  0.002	 -0.001	 33.100	 99.124	 -0.749
33514	  0.442	 -0.291	  0.356	 -0.428	  0.028	 -9.760	  0.000	  0.003	 -0.001	 33.100	 99.124	 -0.749
33563	  0.445	 -0.291	  0.356	 -0.442	  0.063	 -9.796	 -0.004	  0.003	  0.000	 33.100	 99.113	  0.250
33614	  0.441	 -0.292	  0.357	 -0.455	  0.050	 -9.771	 -0.005	  0.003	 -0.001	 33.100	 99.113	  0.250
33663	  0.443	 -0.297	  0.356	 -0.412	  0.043	 -9.733	 -0.001	  0.002	  0.001	 33.100	 99.113	  0.250
33713	  0.441	 -0.296	  0.352	 -0.447	  0.031	 -9.740	 -0.005	  0.002	 -0.001	 33.100	 99.117	 -0.113
33764	  0.442	 -0.301	  0.357	 -0.430	  0.021	 -9.766	 -0.003	  0.002	  0.002	 33.100	 99.120	 -0.386
33814	  0.442	 -0.293	  0.357	 -0.439	  0.044	 -9.733	 -0.003	  0.002	 -0.001	 33.100	 99.113	  0.250
33864	  0.441	 -0.296	  0.357	 -0.432	  0.079	 -9.687	 -0.003	  0.001	  0.000	 33.100	 99.124	 -0.749
33914	  0.442	 -0.298	  0.357	 -0.455	  0.044	 -9.738	 -0.004	  0.003	 -0.000	 33.100	 99.109	  0.613
33964	  0.443	 -0.296	  0.354	 -0.434	  0.078	 -9.771	 -0.002	  0.003	  0.001	 33.100	 99.124	 -0.749
34014	  0.441	 -0.300	  0.356	 -0.441	  0.046	 -9.750	 -0.004	  0.001	 -0.000	 33.100	 99.124	 -0.749
34064	  0.441	 -0.296	  0.356	 -0.432	  0.059	 -9.769	 -0.003	  0.003	  0.000	 33.100	 99.113	  0.250
34114	  0.443	 -0.297	  0.354	 -0.440	  0.036	 -9.740	 -0.005	  0.002	  0.001	 33.100	 99.124	 -0.749
34164	  0.444	 -0.296	  0.358	 -0.448	  0.026	 -9.752	 -0.001	  0.004	  0.001	 33.100	 99.113	  0.250
34214	  0.442	 -0.289	  0.358	 -0.449	  0.050	 -9.772	 -0.003	  0.003	  0.000	 33.100	 99.113	  0.250
34264	  0.443	 -0.298	  0.354	 -0.453	  0.049	 -9.747	 -0.005	  0.003	 -0.000	 33.100	 99.113	  0.250
34314	  0.442	 -0.293	  0.357	 -0.411	  0.023	 -9.774	 -0.001	  0.003	  0.001	 33.100	 99.102	  1.249
34364	  0.442	 -0.295	  0.355	 -0.444	  0.043	 -9.750	 -0.005	  0.003	 -0.000	 33.100	 99.113	  0.250
34414	  0.446	 -0.296	  0.352	 -0.409	  0.052	 -9.776	 -0.003	  0.001	 -0.000	 33.100	 99.124	 -0.749
34464	  0.443	 -0.299	  0.354	 -0.435	  0.055	 -9.737	 -0.002	  0.002	  0.001	 33.100	 99.113	  0.250
34514	  0.440	 -0.294	  0.357	 -0.457	  0.034	 -9.781	 -0.002	  0.003	  0.002	 33.100	 99.113	  0.250
34564	  0.443	 -0.298	  0.359	 -0.455	  0.043	 -9.741	 -0.005	  0.002	 -0.001	 33.100	 99.113	  0.250
34614	  0.442	 -0.296	  0.357	 -0.448	  0.040	 -9.732	 -0.003	  0.003	 -0.000	 33.100	 99.113	  0.250
34664	  0.440	 -0.297	  0.356	 -0.440	  0.038	 -9.757	 -0.003	  0.004	 -0.000	 33.100	 99.113	  0.250
34714	  0.444	 -0.298	  0.360	 -0.451	  0.052	 -9.746	 -0.006	  0.004	 -0.000	 33.100	 99.124	 -0.749
34764	  0.442	 -0.291	  0.358	 -0.439	  0.044	 -9.739	 -0.003	  0.002	  0.000	 33.100	 99.124	 -0.749
34814	  0.443	 -0.296	  0.352	 -0.440	  0.057	 -9.765	 -0.003	  0.004	  0.000	 33.100	 99.120	 -0.386
34864	  0.441	 -0.296	  0.355	 -0.469	  0.031	 -9.839	 -0.003	  0.003	 -0.000	 33.100	 99.109	  0.613
34914	  0.440	 -0.297	  0.358	 -0.466	  0.044	 -9.721	 -0.004	  0.001	  0.001	 33.100	 99.113	  0.250
34964	  0.444	 -0.297	  0.358	 -0.434	  0.062	 -9.753	 -0.003	  0.003	 -0.001	 33.100	 99.113	  0.250
35014	  0.442	 -0.294	  0.355	 -0.463	  0.024	 -9.734	 -0.004	  0.004	 -0.001	 33.100	 99.113	  0.250
35064	  0.443	 -0.299	  0.357	 -0.464	  0.056	 -9.788	 -0.005	  0.003	 -0.000	 33.100	 99.113	  0.250
35114	  0.443	 -0.293	  0.348	 -0.437	  0.069	 -9.718	 -0.004	  0.002	  0.001	 33.100	 99.113	  0.250
35164	  0.444	 -0.293	  0.356	 -0.426	  0.062	 -9.740	 -0.002	  0.003	  0.001	 33.100	 99.113	  0.250
35214	  0.443	 -0.291	  0.357	 -0.446	  0.036	 -9.739	 -0.004	  0.001	  0.002	 33.100	 99.113	  0.250
35264	  0.443	 -0.293	  0.358	 -0.449	  0.056	 -9.753	 -0.004	  0.003	 -0.001	 33.100	 99.102	  1.249
35314	  0.443	 -0.296	  0.356	 -0.440	  0.029	 -9.712	 -0.001	  0.004	  0.000	 33.100	 99.113	  0.250
35364	  0.443	 -0.295	  0.356	 -0.435	  0.037	 -9.759	 -0.004	  0.002	  0.001	 33.100	 99.113	  0.250
35414	  0.444	 -0.296	  0.358	 -0.456	  0.047	 -9.745	 -0.005	  0.002	  0.002	 33.100	 99.113	  0.250
35464	  0.440	 -0.296	  0.350	 -0.422	  0.035	 -9.737	 -0.002	  0.002	 -0.001	 33.100	 99.124	 -0.749
35514	  0.443	 -0.295	  0.359	 -0.442	  0.046	 -9.805	 -0.002	  0.003	  0.000	 33.100	 99.124	 -0.749
35564	  0.442	 -0.297	  0.355	 -0.434	  0.058	 -9.707	 -0.007	  0.001	  0.000	 33.100	 99.113	  0.250
35614	  0.444	 -0.297	  0.356	 -0.452	  0.044	 -9.756	 -0.003	  0.002	 -0.000	 33.100	 99.113	  0.250
35664	  0.443	 -0.293	  0.357	 -0.438	  0.039	 -9.720	  0.000	  0.003	  0.001	 33.100	 99.113	  0.250
35714	  0.444	 -0.294	  0.360	 -0.443	  0.046	 -9.770	 -0.006	  0.003	  0.000	 33.100	 99.124	 -0.749
35764	  0.442	 -0.295	  0.355	 -0.427	  0.071	 -9.737	 -0.006	  0.002	  0.002	 33.100	 99.129	 -1.203
35814	  0.445	 -0.296	  0.355	 -0.468	  0.048	 -9.728	 -0.000	  0.003	  0.001	 33.100	 99.124	 -0.749
35864	  0.442	 -0.296	  0.360	 -0.452	  0.036	 -9.778	 -0.003	  0.002	  0.000	 33.100	 99.113	  0.250
35914	  0.443	 -0.292	  0.357	 -0.400	  0.033	 -9.707	 -0.006	  0.001	  0.001	 33.100	 99.124	 -0.749
35964	  0.444	 -0.295	  0.355	 -0.450	  0.055	 -9.768	 -0.001	  0.002	 -0.001	 33.100	 99.113	  0.250
36014	  0.442	 -0.298	  0.356	 -0.427	  0.073	 -9.750	 -0.003	  0.004	  0.001	 33.100	 99.109	  0.613
36064	  0.442	 -0.297	  0.356	 -0.441	  0.033	 -9.770	 -0.006	  0.002	  0.001	 33.100	 99.113	  0.250
36114	  0.442	 -0.297	  0.355	 -0.430	  0.056	 -9.734	 -0.002	  0.002	  0.001	 33.100	 99.124	 -0.749
36164	  0.443	 -0.292	  0.358	 -0.436	  0.047	 -9.753	 -0.002	  0.006	 -0.000	 33.100	 99.113	  0.250
36214	  0.441	 -0.295	  0.353	 -0.448	  0.061	 -9.749	 -0.002	  0.002	  0.001	 33.100	 99.124	 -0.749
36264	  0.443	 -0.293	  0.360	 -0.425	  0.059	 -9.763	 -0.005	  0.003	  0.001	 33.100	 99.113	  0.250
36314	  0.443	 -0.297	  0.357	 -0.434	  0.058	 -9.755	 -0.002	  0.003	  0.001	 33.100	 99.113	  0.250
36364	  0.442	 -0.295	  0.356	 -0.417	  0.033	 -9.756	 -0.003	  0.002	 -0.000	 33.100	 99.124	 -0.749
36414	  0.442	 -0.288	  0.359	 -0.442	  0.060	 -9.774	 -0.004	  0.002	  0.001	 33.100	 99.120	 -0.386
36464	  0.442	 -0.296	  0.352	 -0.436	  0.064	 -9.736	 -0.003	  0.002	  0.000	 33.100	 99.124	 -0.749
36514	  0.442	 -0.295	  0.355	 -0.427	  0.043	 -9.777	 -0.002	  0.004	 -0.000	 33.100	 99.124	 -0.749
36564	  0.442	 -0.293	  0.357	 -0.440	  0.006	 -9.719	 -0.006	  0.001	  0.001	 33.100	 99.113	  0.250
36614	  0.443	 -0.295	  0.355	 -0.450	  0.037	 -9.752	 -0.001	  0.003	  0.001	 33.100	 99.124	 -0.749
36664	  0.443	 -0.297	  0.357	 -0.421	  0.021	 -9.773	 -0.003	  0.002	  0.001	 33.100	 99.113	  0.250
36714	  0.441	 -0.298	  0.355	 -0.454	  0.031	 -9.787	 -0.004	  0.003	  0.001	 33.100	 99.113	  0.250
36764	  0.443	 -0.296	  0.356	 -0.448	  0.067	 -9.757	 -0.002	  0.001	  0.001	 33.100	 99.113	  0.250
36814	  0.443	 -0.292	  0.352	 -0.431	  0.036	 -9.764	 -0.003	  0.003	 -0.002	 33.100	 99.124	 -0.749
36864	  0.443	 -0.289	  0.363	 -0.438	  0.043	 -9.752	 -0.001	  0.001	  0.001	 33.100	 99.113	  0.250
36914	  0.444	 -0.296	  0.354	 -0.431	  0.062	 -9.765	 -0.007	  0.003	 -0.001	 33.100	 99.113	  0.250
36964	  0.445	 -0.299	  0.356	 -0.445	  0.036	 -9.735	  0.000	  0.004	  0.001	 33.100	 99.113	  0.250
37014	  0.444	 -0.296	  0.357	 -0.445	  0.053	 -9.749	 -0.004	  0.003	  0.000	 33.100	 99.113	  0.250
37064	  0.444	 -0.297	  0.356	 -0.449	  0.043	 -9.724	 -0.006	  0.000	  0.001	 33.100	 99.109	  0.613
37114	  0.441	 -0.297	  0.355	 -0.437	  0.058	 -9.757	 -0.002	  0.003	 -0.000	 33.100	 99.113	  0.250
37163	  0.440	 -0.295	  0.358	 -0.420	  0.045	 -9.766	 -0.001	  0.003	  0.001	 33.100	 99.113	  0.250
37213	  0.443	 -0.298	  0.357	 -0.415	  0.049	 -9.772	 -0.009	  0.000	 -0.000	 33.100	 99.124	 -0.749
37263	  0.443	 -0.294	  0.356	 -0.466	  0.024	 -9.758	 -0.003	  0.003	 -0.000	 33.100	 99.113	  0.250
37313	  0.444	 -0.292	  0.359	 -0.410	  0.065	 -9.707	 -0.001	  0.003	  0.000	 33.100	 99.120	 -0.386
37363	  0.444	 -0.294	  0.355	 -0.436	  0.036	 -9.769	 -0.006	  0.002	  0.001	 33.100	 99.113	  0.250
37413	  0.442	 -0.297	  0.350	 -0.461	  0.065	 -9.699	 -0.004	  0.001	 -0.000	 33.100	 99.113	  0.250
37463	  0.443	 -0.297	  0.354	 -0.439	  0.031	 -9.762	 -0.003	  0.002	  0.001	 33.100	 99.124	 -0.749
37513	  0.446	 -0.300	  0.356	 -0.421	  0.038	 -9.708	 -0.003	  0.001	 -0.000	 33.100	 99.117	 -0.113
37563	  0.443	 -0.290	  0.356	 -0.446	  0.074	 -9.727	 -0.005	  0.002	 -0.001	 33.100	 99.124	 -0.749
37613	  0.443	 -0.297	  0.354	 -0.442	  0.031	 -9.718	 -0.005	  0.003	  0.001	 33.100	 99.113	  0.250
37663	  0.443	 -0.294	  0.359	 -0.442	  0.046	 -9.729	 -0.001	  0.004	  0.001	 33.100	 99.124	 -0.749
37713	  0.443	 -0.296	  0.358	 -0.454	  0.037	 -9.782	 -0.006	  0.003	  0.000	 33.100	 99.124	 -0.749
37763	  0.443	 -0.295	  0.355	 -0.452	  0.076	 -9.745	 -0.004	  0.001	  0.000	 33.100	 99.124	 -0.749
37813	  0.445	 -0.297	  0.354	 -0.443	  0.040	 -9.784	 -0.000	  0.004	 -0.000	 33.100	 99.113	  0.250
37863	  0.444	 -0.294	  0.358	 -0.464	  0.038	 -9.796	 -0.008	  0.002	  0.001	 33.100	 99.113	  0.250
37913	  0.443	 -0.295	  0.358	 -0.435	  0.050	 -9.736	 -0.004	  0.002	  0.001	 33.100	 99.113	  0.250
37963	  0.443	 -0.292	  0.359	 -0.440	  0.052	 -9.736	 -0.001	  0.002	 -0.001	 33.100	 99.124	 -0.749
38013	  0.443	 -0.296	  0.356	 -0.432	  0.053	 -9.753	 -0.003	  0.002	  0.001	 33.100	 99.113	  0.250
38063	  0.443	 -0.293	  0.358	 -0.450	  0.044	 -9.799	 -0.006	  0.003	 -0.000	 33.100	 99.124	 -0.749
38113	  0.442	 -0.293	  0.355	 -0.455	  0.050	 -9.754	 -0.003	  0.003	  0.001	 33.100	 99.113	  0.250
38163	  0.442	 -0.297	  0.355	 -0.456	  0.045	 -9.759	 -0.002	  0.004	  0.000	 33.100	 99.113	  0.250
38213	  0.443	 -0.299	  0.356	 -0.427	  0.054	 -9.752	 -0.005	  0.001	  0.002	 33.100	 99.124	 -0.749
38264	  0.442	 -0.297	  0.352	 -0.438	  0.041	 -9.732	 -0.005	  0.002	  0.000	 33.100	 99.124	 -0.749
38313	  0.443	 -0.296	  0.358	 -0.448	  0.043	 -9.760	 -0.000	  0.003	  0.000	 33.100	 99.113	  0.250
38363	  0.443	 -0.297	  0.351	 -0.453	  0.059	 -9.771	 -0.004	  0.002	  0.000	 33.100	 99.120	 -0.386
38413	  0.443	 -0.295	  0.357	 -0.442	  0.052	 -9.731	 -0.007	  0.002	  0.001	 33.100	 99.113	  0.250
38463	  0.443	 -0.295	  0.358	 -0.450	  0.050	 -9.744	 -0.002	  0.002	  0.001	 33.100	 99.113	  0.250
38513	  0.444	 -0.297	  0.355	 -0.434	  0.052	 -9.817	 -0.002	  0.002	 -0.000	 33.100	 99.113	  0.250
38563	  0.443	 -0.293	  0.358	 -0.416	  0.055	 -9.764	 -0.007	  0.002	  0.001	 33.100	 99.113	  0.250
38613	  0.442	 -0.294	  0.356	 -0.458	  0.049	 -9.730	 -0.001	  0.003	  0.001	 33.100	 99.124	 -0.749
38663	  0.441	 -0.297	  0.357	 -0.436	  0.061	 -9.805	 -0.001	  0.003	  0.001	 33.100	 99.124	 -0.749
38714	  0.443	 -0.294	  0.355	 -0.441	  0.040	 -9.715	 -0.007	  0.002	  0.000	 33.100	 99.102	  1.249
38763	  0.443	 -0.297	  0.356	 -0.435	  0.048	 -9.751	 -0.003	  0.003	  0.000	 33.100	 99.117	 -0.113
38813	  0.444	 -0.295	  0.357	 -0.451	  0.046	 -9.790	 -0.004	  0.003	 -0.000	 33.100	 99.124	 -0.749
38863	  0.443	 -0.292	  0.357	 -0.432	  0.048	 -9.731	 -0.000	  0.003	  0.000	 33.100	 99.113	  0.250
38913	  0.442	 -0.297	  0.358	 -0.434	  0.047	 -9.736	 -0.006	  0.001	  0.001	 33.100	 99.113	  0.250
38963	  0.442	 -0.296	  0.357	 -0.456	  0.036	 -9.761	 -0.004	  0.003	 -0.001	 33.100	 99.113	  0.250
39013	  0.442	 -0.294	  0.357	 -0.459	  0.047	 -9.784	 -0.001	  0.004	 -0.000	 33.100	 99.124	 -0.749
39064	  0.442	 -0.297	  0.352	 -0.443	  0.038	 -9.765	 -0.006	  0.001	  0.001	 33.100	 99.113	  0.250
39114	  0.439	 -0.295	  0.357	 -0.442	  0.047	 -9.727	 -0.004	  0.002	  0.001	 33.100	 99.124	 -0.749
39164	  0.442	 -0.296	  0.355	 -0.436	  0.042	 -9.743	 -0.002	  0.002	  0.000	 33.100	 99.102	  1.249
39214	  0.444	 -0.293	  0.356	 -0.427	  0.033	 -9.769	 -0.002	  0.003	 -0.000	 33.100	 99.109	  0.613
39264	  0.444	 -0.292	  0.354	 -0.431	  0.046	 -9.773	 -0.004	  0.003	  0.001	 33.100	 99.113	  0.250
39314	  0.445	 -0.296	  0.352	 -0.427	  0.074	 -9.716	 -0.004	  0.003	  0.000	 33.100	 99.113	  0.250
39364	  0.443	 -0.296	  0.355	 -0.453	  0.055	 -9.755	 -0.003	  0.002	  0.001	 33.100	 99.113	  0.250
39414	  0.443	 -0.300	  0.354	 -0.435	  0.040	 -9.747	 -0.001	  0.004	  0.001	 33.100	 99.113	  0.250
39464	  0.441	 -0.296	  0.356	 -0.438	  0.038	 -9.751	 -0.007	  0.002	  0.001	 33.100	 99.113	  0.250
39514	  0.443	 -0.290	  0.357	 -0.424	  0.033	 -9.743	 -0.004	  0.001	  0.000	 33.100	 99.113	  0.250
39564	  0.443	 -0.298	  0.357	 -0.453	  0.059	 -9.751	 -0.002	  0.002	 -0.001	 33.100	 99.113	  0.250
39614	  0.443	 -0.296	  0.355	 -0.442	  0.049	 -9.759	 -0.005	  0.001	 -0.001	 33.100	 99.113	  0.250
39664	  0.441	 -0.295	  0.356	 -0.456	  0.039	 -9.754	 -0.005	  0.003	  0.001	 33.100	 99.124	 -0.749
39714	  0.442	 -0.295	  0.354	 -0.448	  0.042	 -9.741	 -0.003	  0.002	  0.000	 33.100	 99.113	  0.250
39764	  0.443	 -0.294	  0.357	 -0.452	  0.047	 -9.736	 -0.002	  0.003	  0.000	 33.100	 99.113	  0.250
39814	  0.442	 -0.293	  0.359	 -0.433	  0.033	 -9.778	 -0.003	  0.003	  0.000	 33.100	 99.117	 -0.113
39864	  0.444	 -0.296	  0.360	 -0.456	  0.082	 -9.754	 -0.004	  0.002	 -0.000	 33.100	 99.109	  0.613
39914	  0.445	 -0.299	  0.356	 -0.447	  0.046	 -9.742	 -0.002	  0.004	 -0.001	 33.100	 99.113	  0.250
39964	  0.441	 -0.298	  0.358	 -0.441	  0.066	 -9.758	 -0.005	  0.004	  0.000	 33.100	 99.113	  0.250
40014	  0.441	 -0.297	  0.358	 -0.460	  0.055	 -9.747	 -0.003	  0.003	  0.000	 33.100	 99.124	 -0.749
40064	  0.441	 -0.294	  0.358	 -0.422	  0.023	 -9.757	 -0.001	  0.003	  0.001	 33.100	 99.129	 -1.203
40114	  0.442	 -0.295	  0.358	 -0.456	  0.053	 -9.726	 -0.007	  0.002	  0.000	 33.100	 99.113	  0.250
40164	  0.442	 -0.298	  0.356	 -0.452	  0.056	 -9.765	 -0.001	  0.003	  0.001	 33.100	 99.113	  0.250
40214	  0.441	 -0.293	  0.357	 -0.426	  0.046	 -9.748	 -0.005	  0.002	  0.001	 33.100	 99.113	  0.250
40264	  0.443	 -0.296	  0.358	 -0.447	  0.048	 -9.685	 -0.002	  0.000	  0.001	 33.100	 99.124	 -0.749
40314	  0.443	 -0.297	  0.356	 -0.451	  0.044	 -9.761	 -0.001	  0.003	  0.000	 33.100	 99.109	  0.613
40364	  0.443	 -0.294	  0.356	 -0.457	  0.027	 -9.764	 -0.005	  0.002	  0.000	 33.100	 99.102	  1.249
40414	  0.443	 -0.296	  0.358	 -0.450	  0.047	 -9.783	 -0.003	  0.003	 -0.001	 33.100	 99.113	  0.250
40464	  0.441	 -0.300	  0.356	 -0.406	  0.028	 -9.707	  0.000	  0.002	  0.002	 33.100	 99.113	  0.250
40514	  0.445	 -0.288	  0.351	 -0.452	  0.024	 -9.815	 -0.007	  0.004	 -0.002	 33.100	 99.124	 -0.749
40564	  0.442	 -0.294	  0.355	 -0.440	  0.033	 -9.753	 -0.004	  0.002	  0.001	 33.100	 99.113	  0.250
40614	  0.441	 -0.298	  0.355	 -0.452	  0.035	 -9.769	 -0.002	  0.004	 -0.000	 33.100	 99.124	 -0.749
40664	  0.443	 -0.292	  0.357	 -0.458	  0.028	 -9.763	  0.000	  0.003	  0.001	 33.100	 99.124	 -0.749
40714	  0.444	 -0.296	  0.357	 -0.411	  0.034	 -9.745	 -0.010	  0.002	  0.001	 33.100	 99.113	  0.250
40764	  0.442	 -0.297	  0.354	 -0.449	  0.060	 -9.722	 -0.003	  0.002	  0.000	 33.100	 99.124	 -0.749
40814	  0.444	 -0.297	  0.357	 -0.465	  0.063	 -9.752	  0.000	  0.004	  0.001	 33.100	 99.124	 -0.749
40864	  0.443	 -0.294	  0.352	 -0.464	  0.059	 -9.723	 -0.008	  0.002	  0.000	 33.100	 99.113	  0.250
40914	  0.444	 -0.297	  0.356	 -0.338	  0.085	 -9.732	 -0.007	  0.003	 -0.003	 33.100	 99.109	  0.613
40964	  0.440	 -0.297	  0.353	 -0.438	  0.043	 -9.796	 -0.001	  0.001	  0.002	 33.100	 99.113	  0.250
41014	  0.444	 -0.298	  0.358	 -0.524	  0.041	 -9.705	 -0.004	  0.000	  0.003	 33.100	 99.124	 -0.749
41064	  0.442	 -0.295	  0.357	 -0.391	  0.043	 -9.722	 -0.002	  0.003	 -0.001	 33.100	 99.113	  0.250
41114	  0.444	 -0.297	  0.357	 -0.429	  0.082	 -9.809	 -0.004	  0.003	 -0.001	 33.100	 99.124	 -0.749
41164	  0.443	 -0.297	  0.357	 -0.443	  0.008	 -9.746	 -0.002	  0.001	 -0.000	 33.100	 99.102	  1.249
41214	  0.442	 -0.298	  0.355	 -0.440	  0.053	 -9.752	 -0.006	  0.002	  0.000	 33.100	 99.124	 -0.749
41264	  0.441	 -0.297	  0.358	 -0.448	  0.046	 -9.766	 -0.001	  0.003	  0.001	 33.100	 99.113	  0.250
41314	  0.443	 -0.300	  0.354	 -0.430	  0.051	 -9.741	 -0.000	  0.002	 -0.001	 33.100	 99.140	 -2.202
41364	  0.441	 -0.300	  0.355	 -0.465	  0.055	 -9.751	 -0.010	  0.001	 -0.000	 33.100	 99.124	 -0.749
41414	  0.441	 -0.295	  0.353	 -0.434	  0.058	 -9.751	 -0.001	  0.004	  0.000	 33.100	 99.113	  0.250
41464	  0.441	 -0.297	  0.351	 -0.458	  0.047	 -9.758	  0.003	  0.004	  0.001	 33.100	 99.124	 -0.749
41514	  0.443	 -0.292	  0.357	 -0.405	  0.057	 -9.759	 -0.012	  0.000	  0.001	 33.100	 99.113	  0.250
41564	  0.443	 -0.298	  0.358	 -0.432	  0.058	 -9.728	 -0.002	  0.002	  0.001	 33.100	 99.113	  0.250
41614	  0.441	 -0.298	  0.354	 -0.460	  0.046	 -9.769	  0.002	  0.004	 -0.000	 33.100	 99.124	 -0.749
41664	  0.441	 -0.293	  0.360	 -0.428	  0.042	 -9.773	 -0.007	  0.002	 -0.001	 33.100	 99.113	  0.250
41714	  0.444	 -0.294	  0.356	 -0.486	  0.039	 -9.751	 -0.005	  0.003	 -0.000	 33.100	 99.124	 -0.749
41764	  0.442	 -0.291	  0.358	 -0.440	  0.033	 -9.736	 -0.001	  0.003	  0.002	 33.100	 99.124	 -0.749
41814	  0.441	 -0.296	  0.357	 -0.442	  0.042	 -9.746	 -0.002	  0.003	 -0.002	 33.100	 99.124	 -0.749
41864	  0.443	 -0.297	  0.354	 -0.431	  0.061	 -9.724	 -0.008	  0.001	  0.000	 33.100	 99.124	 -0.749
41914	  0.443	 -0.297	  0.355	 -0.432	  0.057	 -9.731	 -0.001	  0.002	  0.001	 33.100	 99.113	  0.250
41964	  0.442	 -0.296	  0.359	 -0.487	  0.048	 -9.801	 -0.000	  0.004	 -0.001	 33.100	 99.113	  0.250
42014	  0.444	 -0.296	  0.357	 -0.450	  0.035	 -9.770	 -0.005	  0.003	  0.000	 33.100	 99.124	 -0.749
42064	  0.441	 -0.298	  0.356	 -0.458	  0.037	 -9.763	 -0.005	  0.002	 -0.000	 33.100	 99.113	  0.250
42114	  0.443	 -0.297	  0.358	 -0.421	  0.040	 -9.756	  0.000	  0.003	 -0.001	 33.100	 99.113	  0.250
42164	  0.444	 -0.299	  0.358	 -0.447	  0.028	 -9.769	 -0.004	  0.002	 -0.000	 33.100	 99.102	  1.249
42214	  0.441	 -0.296	  0.357	 -0.434	  0.049	 -9.745	 -0.005	  0.002	  0.001	 33.100	 99.124	 -0.749
42264	  0.444	 -0.302	  0.359	 -0.448	  0.042	 -9.751	 -0.001	  0.002	  0.001	 33.100	 99.124	 -0.749
42314	  0.441	 -0.295	  0.351	 -0.437	  0.037	 -9.769	 -0.003	  0.002	  0.000	 33.100	 99.113	  0.250
42364	  0.443	 -0.300	  0.357	 -0.431	  0.033	 -9.728	 -0.004	  0.002	 -0.000	 33.100	 99.102	  1.249
42414	  0.440	 -0.298	  0.354	 -0.449	  0.031	 -9.740	 -0.003	  0.003	  0.000	 33.100	 99.113	  0.250
42464	  0.442	 -0.300	  0.359	 -0.456	  0.038	 -9.747	 -0.003	  0.003	 -0.000	 33.100	 99.124	 -0.749
42514	  0.440	 -0.298	  0.352	 -0.432	  0.023	 -9.760	 -0.004	  0.002	  0.000	 33.100	 99.113	  0.250
42564	  0.442	 -0.299	  0.354	 -0.439	  0.058	 -9.755	 -0.005	  0.002	  0.000	 33.100	 99.113	  0.250
42614	  0.441	 -0.300	  0.354	 -0.436	  0.069	 -9.752	 -0.001	  0.002	  0.000	 33.100	 99.113	  0.250
42664	  0.439	 -0.299	  0.352	 -0.443	  0.056	 -9.748	 -0.003	  0.002	  0.000	 33.100	 99.113	  0.250
42714	  0.442	 -0.297	  0.358	 -0.457	  0.033	 -9.752	 -0.006	  0.001	  0.000	 33.100	 99.117	 -0.113
42764	  0.442	 -0.296	  0.359	 -0.454	  0.049	 -9.718	 -0.001	  0.003	  0.000	 33.100	 99.113	  0.250
42814	  0.443	 -0.292	  0.356	 -0.444	  0.045	 -9.733	 -0.003	  0.003	  0.000	 33.100	 99.113	  0.250
42864	  0.443	 -0.293	  0.355	 -0.456	  0.027	 -9.738	 -0.008	  0.002	 -0.001	 33.100	 99.124	 -0.749
42914	  0.445	 -0.298	  0.357	 -0.441	  0.051	 -9.738	 -0.004	  0.002	  0.001	 33.100	 99.113	  0.250
42964	  0.442	 -0.296	  0.358	 -0.454	  0.039	 -9.759	 -0.002	  0.002	  0.001	 33.100	 99.113	  0.250
43014	  0.443	 -0.292	  0.358	 -0.443	  0.066	 -9.766	 -0.005	  0.001	  0.001	 33.100	 99.113	  0.250
43064	  0.443	 -0.296	  0.357	 -0.427	  0.054	 -9.764	 -0.005	  0.003	  0.000	 33.100	 99.102	  1.249
43114	  0.444	 -0.298	  0.355	 -0.432	  0.046	 -9.746	 -0.002	  0.003	 -0.000	 33.100	 99.113	  0.250
43164	  0.445	 -0.297	  0.358	 -0.440	  0.050	 -9.766	 -0.003	  0.004	  0.000	 33.100	 99.113	  0.250
43214	  0.440	 -0.292	  0.351	 -0.454	  0.044	 -9.746	  0.010	  0.004	  0.001	 33.100	 99.113	  0.250
43264	  0.443	 -0.296	  0.355	 -0.453	  0.062	 -9.766	 -0.026	 -0.004	  0.001	 33.100	 99.113	  0.250
43314	  0.442	 -0.297	  0.354	 -0.418	  0.047	 -9.745	 -0.001	  0.004	  0.001	 33.100	 99.113	  0.250
43364	  0.443	 -0.297	  0.358	 -0.444	  0.026	 -9.774	  0.011	  0.006	  0.000	 33.100	 99.124	 -0.749
43414	  0.441	 -0.298	  0.354	 -0.439	  0.029	 -9.744	 -0.012	  0.000	  0.001	 33.100	 99.113	  0.250
43464	  0.443	 -0.296	  0.358	 -0.442	  0.052	 -9.742	 -0.012	 -0.001	 -0.002	 33.100	 99.124	 -0.749
43514	  0.444	 -0.297	  0.359	 -0.461	  0.064	 -9.713	  0.007	  0.005	 -0.000	 33.100	 99.102	  1.249
43564	  0.443	 -0.293	  0.357	 -0.418	  0.013	 -9.756	  0.002	  0.004	  0.000	 33.100	 99.113	  0.250
43614	  0.442	 -0.297	  0.359	 -0.432	  0.039	 -9.765	 -0.016	 -0.001	  0.001	 33.100	 99.113	  0.250
43664	  0.441	 -0.298	  0.357	 -0.446	  0.061	 -9.759	 -0.003	  0.003	 -0.000	 33.100	 99.113	  0.250
43714	  0.442	 -0.296	  0.354	 -0.427	  0.037	 -9.720	  0.006	  0.005	 -0.000	 33.100	 99.102	  1.249
43764	  0.443	 -0.291	  0.355	 -0.447	  0.024	 -9.768	 -0.008	  0.000	 -0.000	 33.100	 99.124	 -0.749
43814	  0.440	 -0.297	  0.356	 -0.472	  0.044	 -9.731	 -0.009	  0.002	  0.001	 33.100	 99.113	  0.250
43864	  0.443	 -0.293	  0.357	 -0.445	  0.107	 -9.652	  0.059	  0.019	 -0.001	 33.100	 99.113	  0.250
43914	  0.442	 -0.292	  0.363	 -0.438	 -0.001	 -9.724	  0.064	  0.024	  0.001	 33.100	 99.117	 -0.113
43964	  0.441	 -0.290	  0.364	 -0.527	  0.300	 -9.269	  0.464	  0.147	 -0.021	 33.100	 99.113	  0.250
44014	  0.436	 -0.275	  0.372	  0.406	 -1.513	 -9.656	 -0.013	  0.014	 -0.088	 33.100	 99.113	  0.250
44064	  0.438	 -0.276	  0.375	 -0.273	 -0.320	 -9.716	  0.032	  0.008	 -0.004	 33.100	 99.117	 -0.113
44115	  0.436	 -0.278	  0.367	 -0.283	 -0.312	 -9.812	 -0.232	 -0.069	  0.020	 33.100	 99.113	  0.250
44164	  0.438	 -0.280	  0.370	 -0.339	 -0.227	 -9.746	 -0.055	 -0.013	 -0.005	 33.100	 99.117	 -0.113
44213	  0.440	 -0.282	  0.363	 -0.347	 -0.250	 -9.789	  0.029	  0.014	  0.002	 33.100	 99.124	 -0.749
44263	  0.440	 -0.287	  0.363	 -0.281	 -0.441	 -10.125	 -0.448	 -0.133	  0.039	 33.100	 99.113	  0.250
44313	  0.441	 -0.298	  0.354	 -0.050	  0.562	 -8.637	  0.002	  0.012	 -0.022	 33.100	 99.124	 -0.749
44363	  0.442	 -0.296	  0.359	 -0.319	 -0.083	 -9.866	  0.273	  0.087	 -0.003	 33.100	 99.113	  0.250
44413	  0.438	 -0.290	  0.361	 -0.344	 -0.303	 -9.988	 -0.032	 -0.009	  0.003	 33.100	 99.113	  0.250
44463	  0.443	 -0.295	  0.357	 -0.451	  0.013	 -9.799	 -0.251	 -0.067	  0.004	 33.100	 99.113	  0.250
44513	  0.443	 -0.297	  0.357	 -0.396	  0.253	 -9.515	  0.066	  0.008	  0.010	 33.100	 99.113	  0.250
44564	  0.442	 -0.297	  0.357	 -0.391	 -0.045	 -9.795	 -0.009	  0.005	 -0.005	 33.100	 99.129	 -1.203
44614	  0.441	 -0.296	  0.357	 -0.430	  0.047	 -9.744	 -0.076	 -0.018	  0.003	 33.100	 99.113	  0.250
44664	  0.439	 -0.298	  0.356	 -0.452	  0.118	 -9.640	  0.031	  0.014	  0.002	 33.100	 99.102	  1.249
44714	  0.442	 -0.296	  0.357	 -0.411	  0.024	 -9.755	  0.026	  0.009	  0.000	 33.100	 99.113	  0.250
44764	  0.443	 -0.292	  0.357	 -0.416	 -0.000	 -9.767	 -0.029	 -0.005	  0.001	 33.100	 99.113	  0.250
44814	  0.439	 -0.298	  0.351	 -0.462	  0.078	 -9.742	 -0.027	 -0.005	  0.002	 33.100	 99.124	 -0.749
44864	  0.441	 -0.294	  0.358	 -0.465	  0.077	 -9.737	  0.026	  0.010	 -0.000	 33.100	 99.117	 -0.113
44914	  0.442	 -0.295	  0.359	 -0.441	  0.015	 -9.796	 -0.002	  0.002	 -0.000	 33.100	 99.124	 -0.749
44964	  0.441	 -0.298	  0.351	 -0.436	  0.053	 -9.744	 -0.029	 -0.004	  0.001	 33.100	 99.113	  0.250
45014	  0.442	 -0.294	  0.354	 -0.457	  0.053	 -9.730	  0.004	  0.006	 -0.000	 33.100	 99.117	 -0.113
45064	  0.441	 -0.298	  0.358	 -0.438	  0.030	 -9.745	  0.019	  0.008	  0.000	 33.100	 99.129	 -1.203
45114	  0.441	 -0.289	  0.359	 -0.435	  0.011	 -9.748	 -0.016	 -0.001	  0.001	 33.100	 99.124	 -0.749
45164	  0.442	 -0.295	  0.360	 -0.431	  0.060	 -9.719	 -0.015	  0.001	  0.001	 33.100	 99.129	 -1.203
45214	  0.443	 -0.295	  0.355	 -0.441	  0.051	 -9.769	  0.010	  0.006	  0.002	 33.100	 99.113	  0.250
45264	  0.442	 -0.299	  0.357	 -0.419	  0.041	 -9.745	 -0.003	  0.003	 -0.000	 33.100	 99.117	 -0.113
45314	  0.444	 -0.297	  0.357	 -0.458	  0.030	 -9.756	 -0.015	  0.001	  0.001	 33.100	 99.113	  0.250
45364	  0.444	 -0.300	  0.357	 -0.470	  0.044	 -9.715	  0.001	  0.004	 -0.000	 33.100	 99.117	 -0.113
45414	  0.442	 -0.297	  0.358	 -0.446	  0.007	 -9.791	  0.006	  0.005	 -0.000	 33.100	 99.113	  0.250
45464	  0.441	 -0.295	  0.359	 -0.439	  0.029	 -9.733	 -0.013	  0.000	  0.001	 33.100	 99.113	  0.250
45514	  0.443	 -0.296	  0.358	 -0.432	  0.037	 -9.763	 -0.006	  0.001	 -0.000	 33.100	 99.129	 -1.203
45564	  0.440	 -0.296	  0.356	 -0.428	  0.071	 -9.741	  0.004	  0.005	  0.000	 33.100	 99.124	 -0.749
45614	  0.440	 -0.298	  0.359	 -0.426	  0.035	 -9.777	 -0.006	  0.002	 -0.000	 33.100	 99.102	  1.249
45664	  0.443	 -0.290	  0.354	 -0.440	  0.050	 -9.740	 -0.007	  0.002	  0.002	 33.100	 99.124	 -0.749
45714	  0.441	 -0.293	  0.355	 -0.456	  0.057	 -9.782	  0.004	  0.004	 -0.001	 33.100	 99.124	 -0.749
45764	  0.441	 -0.296	  0.359	 -0.431	  0.041	 -9.741	 -0.003	  0.002	  0.001	 33.100	 99.102	  1.249
45814	  0.442	 -0.299	  0.358	 -0.441	  0.042	 -9.761	 -0.009	  0.001	  0.001	 33.100	 99.117	 -0.113
45864	  0.442	 -0.292	  0.357	 -0.452	  0.063	 -9.703	 -0.002	  0.003	  0.001	 33.100	 99.113	  0.250
45914	  0.440	 -0.296	  0.357	 -0.432	  0.014	 -9.777	 -0.002	  0.003	  0.001	 33.100	 99.102	  1.249
45964	  0.442	 -0.298	  0.358	 -0.424	  0.049	 -9.725	 -0.008	  0.001	 -0.001	 33.100	 99.113	  0.250
46014	  0.443	 -0.295	  0.357	 -0.422	  0.047	 -9.751	 -0.003	  0.002	 -0.000	 33.100	 99.129	 -1.203
46064	  0.440	 -0.298	  0.357	 -0.437	  0.036	 -9.721	  0.000	  0.004	 -0.001	 33.100	 99.124	 -0.749
46114	  0.442	 -0.296	  0.352	 -0.425	  0.040	 -9.729	 -0.005	  0.002	  0.001	 33.100	 99.113	  0.250
46164	  0.439	 -0.295	  0.358	 -0.428	  0.023	 -9.744	 -0.005	  0.003	  0.001	 33.100	 99.124	 -0.749
46214	  0.443	 -0.295	  0.357	 -0.462	  0.038	 -9.751	 -0.002	  0.003	  0.000	 33.100	 99.129	 -1.203
46264	  0.441	 -0.299	  0.358	 -0.456	  0.035	 -9.787	 -0.005	  0.003	  0.000	 33.100	 99.102	  1.249
46314	  0.440	 -0.296	  0.357	 -0.435	  0.039	 -9.764	 -0.004	  0.003	  0.000	 33.100	 99.129	 -1.203
46364	  0.443	 -0.296	  0.357	 -0.462	  0.038	 -9.771	 -0.000	  0.004	  0.000	 33.100	 99.113	  0.250
46414	  0.443	 -0.298	  0.359	 -0.432	  0.043	 -9.753	 -0.003	  0.003	  0.001	 33.100	 99.117	 -0.113
46464	  0.442	 -0.294	  0.358	 -0.449	  0.040	 -9.769	 -0.004	  0.003	  0.000	 33.100	 99.113	  0.250
46514	  0.443	 -0.300	  0.358	 -0.422	  0.037	 -9.767	 -0.003	  0.002	 -0.000	 33.100	 99.113	  0.250
46564	  0.442	 -0.288	  0.352	 -0.455	  0.041	 -9.744	 -0.004	  0.002	 -0.000	 33.100	 99.113	  0.250
46614	  0.442	 -0.294	  0.352	 -0.444	  0.038	 -9.751	 -0.005	  0.001	  0.001	 33.100	 99.124	 -0.749
46664	  0.444	 -0.293	  0.358	 -0.443	  0.055	 -9.763	 -0.006	  0.002	  0.001	 33.100	 99.113	  0.250
46714	  0.440	 -0.299	  0.356	 -0.446	  0.051	 -9.791	 -0.002	  0.003	 -0.000	 33.100	 99.113	  0.250
46764	  0.440	 -0.297	  0.356	 -0.424	  0.032	 -9.729	 -0.004	  0.002	  0.001	 33.100	 99.124	 -0.749
46814	  0.443	 -0.297	  0.359	 -0.441	  0.045	 -9.754	 -0.004	  0.002	  0.001	 33.100	 99.124	 -0.749
46864	  0.440	 -0.296	  0.360	 -0.438	  0.043	 -9.767	 -0.003	  0.003	  0.001	 33.100	 99.129	 -1.203
46914	  0.442	 -0.296	  0.355	 -0.444	  0.059	 -9.740	 -0.005	  0.002	 -0.000	 33.100	 99.113	  0.250
46964	  0.442	 -0.289	  0.357	 -0.436	  0.036	 -9.738	 -0.005	  0.000	  0.001	 33.100	 99.102	  1.249
47014	  0.441	 -0.296	  0.351	 -0.405	  0.028	 -9.749	 -0.002	  0.002	 -0.000	 33.100	 99.113	  0.250
47064	  0.441	 -0.295	  0.355	 -0.432	  0.037	 -9.731	 -0.003	  0.003	 -0.001	 33.100	 99.106	  0.886
47114	  0.442	 -0.293	  0.357	 -0.445	  0.029	 -9.776	 -0.005	  0.002	  0.000	 33.100	 99.129	 -1.203
47164	  0.440	 -0.297	  0.357	 -0.439	  0.033	 -9.759	 -0.002	  0.002	 -0.000	 33.100	 99.113	  0.250
47214	  0.441	 -0.297	  0.357	 -0.439	  0.038	 -9.740	 -0.003	  0.004	 -0.001	 33.100	 99.106	  0.886
47264	  0.442	 -0.294	  0.361	 -0.434	  0.066	 -9.772	 -0.004	  0.002	 -0.000	 33.100	 99.113	  0.250
47314	  0.443	 -0.296	  0.358	 -0.450	  0.054	 -9.794	 -0.004	  0.003	 -0.000	 33.100	 99.113	  0.250
47364	  0.440	 -0.293	  0.354	 -0.415	  0.002	 -9.741	 -0.003	  0.001	  0.001	 33.100	 99.113	  0.250
47414	  0.442	 -0.295	  0.356	 -0.448	  0.041	 -9.775	 -0.002	  0.002	 -0.000	 33.100	 99.117	 -0.113
47464	  0.441	 -0.295	  0.355	 -0.433	  0.031	 -9.741	 -0.005	  0.001	  0.001	 33.100	 99.113	  0.250
47514	  0.442	 -0.297	  0.357	 -0.456	  0.051	 -9.763	 -0.002	  0.004	  0.000	 33.100	 99.124	 -0.749
47564	  0.441	 -0.298	  0.355	 -0.418	  0.003	 -9.813	 -0.042	 -0.007	  0.003	 33.100	 99.113	  0.250
47614	  0.440	 -0.296	  0.357	 -0.402	  0.034	 -9.826	 -0.004	  0.005	 -0.001	 33.100	 99.124	 -0.749
47664	  0.442	 -0.297	  0.358	 -0.416	  0.034	 -9.752	  0.006	  0.007	 -0.003	 33.100	 99.124	 -0.749
47714	  0.441	 -0.296	  0.356	 -0.466	  0.071	 -9.735	 -0.002	  0.005	 -0.004	 33.100	 99.113	  0.250
47764	  0.443	 -0.300	  0.357	 -0.462	  0.043	 -9.746	 -0.007	  0.001	  0.001	 33.100	 99.117	 -0.113
47814	  0.442	 -0.289	  0.355	 -0.417	  0.067	 -9.731	 -0.004	  0.003	 -0.000	 33.100	 99.113	  0.250
47864	  0.442	 -0.296	  0.356	 -0.448	  0.066	 -9.737	 -0.003	  0.003	  0.001	 33.100	 99.124	 -0.749
47914	  0.441	 -0.294	  0.357	 -0.449	  0.050	 -9.722	 -0.002	  0.002	 -0.001	 33.100	 99.117	 -0.113
47964	  0.443	 -0.298	  0.358	 -0.454	  0.024	 -9.755	 -0.003	  0.002	  0.001	 33.100	 99.113	  0.250
48014	  0.443	 -0.295	  0.358	 -0.455	  0.059	 -9.757	  0.001	  0.004	  0.003	 33.100	 99.124	 -0.749
48064	  0.442	 -0.292	  0.356	 -0.461	  0.046	 -9.716	 -0.005	  0.001	 -0.001	 33.100	 99.113	  0.250
48114	  0.443	 -0.292	  0.357	 -0.451	  0.072	 -9.782	 -0.004	  0.004	  0.001	 33.100	 99.106	  0.886
48164	  0.442	 -0.294	  0.357	 -0.416	  0.060	 -9.733	 -0.002	  0.004	 -0.000	 33.100	 99.117	 -0.113
48214	  0.443	 -0.294	  0.360	 -0.470	  0.089	 -9.665	  0.186	  0.056	 -0.003	 33.100	 99.113	  0.250
48264	  0.440	 -0.284	  0.365	 -0.374	 -0.136	 -9.821	  0.255	  0.079	  0.002	 33.100	 99.102	  1.249
48314	  0.439	 -0.285	  0.363	 -0.362	 -0.288	 -9.921	  0.002	  0.004	  0.000	 33.100	 99.113	  0.250
48364	  0.437	 -0.287	  0.362	 -0.348	 -0.212	 -9.882	 -0.192	 -0.052	 -0.002	 33.100	 99.113	  0.250
48414	  0.444	 -0.294	  0.359	 -0.424	  0.027	 -9.827	 -0.442	 -0.125	  0.006	 33.100	 99.124	 -0.749
48464	  0.444	 -0.295	  0.357	 -0.344	  0.142	 -9.658	  0.228	  0.067	  0.011	 33.100	 99.124	 -0.749
48514	  0.440	 -0.292	  0.358	 -0.384	 -0.197	 -9.953	 -0.010	  0.000	  0.000	 33.100	 99.113	  0.250
48564	  0.440	 -0.295	  0.353	 -0.412	 -0.017	 -9.872	 -0.242	 -0.063	  0.003	 33.100	 99.113	  0.250
48614	  0.440	 -0.296	  0.358	 -0.459	  0.130	 -9.581	  0.110	  0.046	 -0.003	 33.100	 99.124	 -0.749
48664	  0.441	 -0.298	  0.358	 -0.423	 -0.013	 -9.830	 -0.045	 -0.012	  0.004	 33.100	 99.124	 -0.749
48714	  0.442	 -0.295	  0.354	 -0.503	  0.211	 -9.496	 -0.042	 -0.010	  0.006	 33.100	 99.113	  0.250
48764	  0.441	 -0.296	  0.358	 -0.451	  0.039	 -9.770	  0.019	  0.010	 -0.003	 33.100	 99.113	  0.250
48814	  0.441	 -0.296	  0.350	 -0.427	  0.008	 -9.806	 -0.013	  0.000	  0.001	 33.100	 99.113	  0.250
48864	  0.442	 -0.296	  0.354	 -0.435	  0.054	 -9.716	 -0.034	 -0.005	 -0.000	 33.100	 99.117	 -0.113
48913	  0.440	 -0.296	  0.357	 -0.448	  0.042	 -9.766	  0.014	  0.006	  0.001	 33.100	 99.117	 -0.113
48963	  0.443	 -0.293	  0.357	 -0.450	  0.034	 -9.811	 -0.006	  0.001	  0.001	 33.100	 99.113	  0.250
49013	  0.440	 -0.296	  0.359	 -0.452	  0.073	 -9.715	 -0.015	 -0.001	  0.001	 33.100	 99.113	  0.250
49064	  0.443	 -0.296	  0.357	 -0.441	  0.018	 -9.776	  0.007	  0.003	  0.000	 33.100	 99.113	  0.250
49113	  0.440	 -0.291	  0.357	 -0.450	  0.023	 -9.782	 -0.004	  0.002	 -0.001	 33.100	 99.117	 -0.113
49163	  0.442	 -0.294	  0.355	 -0.428	  0.035	 -9.742	 -0.014	 -0.001	  0.001	 33.100	 99.113	  0.250
49213	  0.443	 -0.297	  0.355	 -0.442	  0.057	 -9.727	  0.000	  0.003	  0.002	 33.100	 99.102	  1.249
49263	  0.441	 -0.295	  0.360	 -0.434	  0.035	 -9.724	 -0.002	  0.003	  0.000	 33.100	 99.113	  0.250
49313	  0.442	 -0.297	  0.358	 -0.452	  0.062	 -9.735	 -0.008	  0.001	  0.000	 33.100	 99.102	  1.249
49363	  0.441	 -0.297	  0.356	 -0.437	  0.054	 -9.763	  0.000	  0.002	  0.001	 33.100	 99.117	 -0.113
49413	  0.443	 -0.301	  0.356	 -0.440	  0.065	 -9.741	  0.000	  0.003	  0.000	 33.100	 99.113	  0.250
49463	  0.442	 -0.299	  0.359	 -0.439	  0.042	 -9.780	 -0.005	  0.004	  0.001	 33.100	 99.117	 -0.113
49514	  0.442	 -0.295	  0.357	 -0.445	  0.053	 -9.743	 -0.008	  0.002	  0.002	 33.100	 99.113	  0.250
49563	  0.442	 -0.292	  0.358	 -0.440	  0.037	 -9.772	 -0.002	  0.003	 -0.000	 33.100	 99.106	  0.886
49613	  0.437	 -0.290	  0.359	 -0.449	  0.051	 -9.734	 -0.004	  0.003	  0.000	 33.100	 99.117	 -0.113
49663	  0.441	 -0.296	  0.355	 -0.429	  0.064	 -9.768	 -0.004	  0.004	  0.000	 33.100	 99.113	  0.250
49713	  0.442	 -0.297	  0.355	 -0.448	  0.047	 -9.718	 -0.002	  0.003	  0.000	 33.100	 99.117	 -0.113
49763	  0.443	 -0.298	  0.359	 -0.447	  0.039	 -9.780	 -0.003	  0.002	  0.000	 33.100	 99.113	  0.250
49813	  0.441	 -0.295	  0.351	 -0.449	  0.055	 -9.769	 -0.005	  0.003	  0.000	 33.100	 99.113	  0.250
49864	  0.443	 -0.293	  0.355	 -0.442	  0.066	 -9.723	 -0.005	  0.002	  0.001	 33.100	 99.124	 -0.749
49913	  0.442	 -0.297	  0.358	 -0.442	  0.034	 -9.761	 -0.003	  0.004	  0.000	 33.100	 99.113	  0.250
49964	  0.442	 -0.287	  0.356	 -0.449	  0.052	 -9.777	 -0.004	  0.002	  0.001	 33.100	 99.113	  0.250
50013	  0.441	 -0.296	  0.357	 -0.429	  0.049	 -9.739	 -0.004	  0.002	 -0.001	 33.100	 99.117	 -0.113
50064	  0.441	 -0.296	  0.359	 -0.425	  0.049	 -9.744	 -0.003	  0.003	 -0.001	 33.100	 99.117	 -0.113
50113	  0.443	 -0.297	  0.361	 -0.449	  0.065	 -9.738	 -0.003	  0.001	  0.000	 33.100	 99.129	 -1.203
50164	  0.442	 -0.297	  0.357	 -0.446	  0.047	 -9.730	 -0.005	  0.002	  0.000	 33.100	 99.113	  0.250
50214	  0.440	 -0.294	  0.357	 -0.471	  0.072	 -9.763	 -0.004	  0.003	  0.000	 33.100	 99.124	 -0.749
50264	  0.439	 -0.294	  0.352	 -0.463	  0.059	 -9.745	 -0.004	  0.003	 -0.000	 33.100	 99.117	 -0.113
50314	  0.439	 -0.297	  0.354	 -0.447	  0.037	 -9.760	 -0.004	  0.001	  0.001	 33.100	 99.129	 -1.203
50364	  0.443	 -0.294	  0.359	 -0.420	  0.052	 -9.784	 -0.003	  0.002	  0.001	 33.100	 99.124	 -0.749
50414	  0.439	 -0.294	  0.356	 -0.446	  0.061	 -9.750	 -0.005	  0.002	  0.000	 33.100	 99.129	 -1.203
50464	  0.441	 -0.297	  0.357	 -0.429	  0.050	 -9.738	 -0.003	  0.003	  0.001	 33.100	 99.117	 -0.113
50514	  0.441	 -0.290	  0.354	 -0.461	  0.033	 -9.741	 -0.004	  0.003	  0.002	 33.100	 99.113	  0.250
50564	  0.440	 -0.295	  0.354	 -0.451	  0.057	 -9.762	 -0.003	  0.004	 -0.000	 33.100	 99.124	 -0.749
50614	  0.440	 -0.294	  0.354	 -0.432	  0.043	 -9.759	 -0.004	  0.003	  0.001	 33.100	 99.113	  0.250
50664	  0.440	 -0.296	  0.356	 -0.462	  0.029	 -9.736	 -0.003	  0.001	  0.002	 33.100	 99.124	 -0.749
50714	  0.441	 -0.296	  0.351	 -0.441	  0.047	 -9.732	 -0.003	  0.001	  0.001	 33.100	 99.117	 -0.113
50764	  0.441	 -0.295	  0.357	 -0.449	  0.064	 -9.746	 -0.003	  0.002	 -0.000	 33.100	 99.113	  0.250
50814	  0.441	 -0.297	  0.357	 -0.417	  0.055	 -9.751	 -0.003	  0.002	  0.001	 33.100	 99.124	 -0.749
50864	  0.441	 -0.295	  0.357	 -0.434	  0.039	 -9.735	 -0.003	  0.002	 -0.000	 33.100	 99.117	 -0.113
50914	  0.442	 -0.296	  0.357	 -0.432	  0.049	 -9.736	 -0.004	  0.001	  0.001	 33.100	 99.117	 -0.113
50964	  0.442	 -0.294	  0.349	 -0.459	  0.025	 -9.742	 -0.003	  0.001	  0.000	 33.100	 99.124	 -0.749
51014	  0.443	 -0.296	  0.354	 -0.446	  0.055	 -9.739	 -0.004	  0.002	 -0.001	 33.100	 99.102	  1.249
51064	  0.443	 -0.287	  0.356	 -0.448	  0.048	 -9.748	 -0.003	  0.003	  0.001	 33.100	 99.124	 -0.749
51114	  0.440	 -0.292	  0.356	 -0.431	  0.048	 -9.757	 -0.003	  0.003	  0.000	 33.100	 99.113	  0.250
51164	  0.443	 -0.293	  0.357	 -0.423	  0.048	 -9.751	 -0.005	  0.002	 -0.001	 33.100	 99.113	  0.250
51214	  0.442	 -0.297	  0.356	 -0.443	  0.049	 -9.778	 -0.004	  0.004	 -0.000	 33.100	 99.124	 -0.749
51264	  0.442	 -0.297	  0.356	 -0.436	  0.079	 -9.762	 -0.004	  0.002	  0.000	 33.100	 99.124	 -0.749
51314	  0.443	 -0.297	  0.356	 -0.452	  0.041	 -9.743	 -0.005	  0.002	  0.000	 33.100	 99.102	  1.249
