Time	 MagX	 MagY	 MagZ	 AccelX	 AccelY	 AccelZ	 Yaw	 Pitch	 Roll	 Temperature	 Pressure	 Altitude
28325	  0.161	 -0.153	 -0.524	  0.162	 -0.304	  9.900	  0.000	  0.007	 -0.001	 25.600	 101.174	 -99999.000
28375	  0.161	 -0.148	 -0.523	  0.071	 -0.288	  9.854	 -0.004	  0.006	  0.001	 25.600	 101.170	 -99999.000
28425	  0.161	 -0.149	 -0.524	  0.131	 -0.262	  9.827	 -0.007	  0.004	  0.006	 25.600	 101.174	 -99999.000
28475	  0.161	 -0.149	 -0.527	  0.066	 -0.355	  9.893	 -0.006	  0.001	  0.005	 25.600	 101.174	 -99999.000
28525	  0.162	 -0.142	 -0.524	  0.153	 -0.317	  9.825	 -0.007	  0.000	  0.007	 25.600	 101.186	 -99999.000
28575	  0.160	 -0.142	 -0.522	  0.140	 -0.391	  9.841	 -0.006	 -0.002	  0.005	 25.600	 101.163	 -99999.000
28625	  0.161	 -0.153	 -0.528	  0.115	 -0.342	  9.880	 -0.004	 -0.002	  0.007	 25.600	 101.174	 -99999.000
28675	  0.162	 -0.147	 -0.527	  0.172	 -0.343	  9.907	 -0.003	  0.000	  0.004	 25.600	 101.174	 -99999.000
28725	  0.161	 -0.149	 -0.519	  0.149	 -0.341	  9.845	 -0.002	  0.003	  0.005	 25.600	 101.170	 -99999.000
28775	  0.162	 -0.148	 -0.520	  0.144	 -0.330	  9.889	 -0.002	  0.004	  0.004	 25.600	 101.170	 -99999.000
28825	  0.162	 -0.150	 -0.520	  0.173	 -0.333	  9.867	 -0.001	  0.005	  0.002	 25.600	 101.163	 -99999.000
28875	  0.162	 -0.149	 -0.525	  0.079	 -0.281	  9.900	 -0.001	  0.007	  0.005	 25.600	 101.163	 -99999.000
28925	  0.160	 -0.142	 -0.521	  0.133	 -0.304	  9.872	 -0.004	  0.005	  0.005	 25.600	 101.163	 -99999.000
28975	  0.162	 -0.148	 -0.521	  0.088	 -0.322	  9.871	 -0.005	  0.004	 -0.002	 25.600	 101.174	 -99999.000
29025	  0.160	 -0.150	 -0.527	  0.112	 -0.348	  9.855	 -0.005	 -0.000	  0.011	 25.600	 101.174	 -99999.000
29075	  0.163	 -0.149	 -0.525	  0.129	 -0.308	  9.817	 -0.006	  0.002	  0.009	 25.600	 101.168	 -99999.000
29125	  0.161	 -0.150	 -0.525	  0.083	 -0.350	  9.894	 -0.005	 -0.001	  0.005	 25.600	 101.163	 -99999.000
29175	  0.161	 -0.150	 -0.525	  0.182	 -0.339	  9.917	 -0.003	  0.002	  0.004	 25.600	 101.174	 -99999.000
29225	  0.164	 -0.141	 -0.520	  0.120	 -0.342	  9.935	 -0.001	  0.001	  0.004	 25.600	 101.163	 -99999.000
29275	  0.161	 -0.153	 -0.522	  0.199	 -0.328	  9.897	  0.001	  0.004	  0.009	 25.600	 101.174	 -99999.000
29325	  0.161	 -0.147	 -0.523	  0.140	 -0.296	  9.825	 -0.001	  0.004	 -0.002	 25.600	 101.174	 -99999.000
29375	  0.162	 -0.152	 -0.524	  0.068	 -0.320	  9.855	 -0.001	  0.005	  0.005	 25.600	 101.163	 -99999.000
29425	  0.164	 -0.150	 -0.527	  0.162	 -0.239	  9.846	 -0.005	  0.006	  0.002	 25.600	 101.174	 -99999.000
29475	  0.162	 -0.149	 -0.521	  0.059	 -0.296	  9.810	 -0.005	  0.004	  0.007	 25.600	 101.174	 -99999.000
29525	  0.162	 -0.148	 -0.521	  0.114	 -0.321	  9.887	 -0.005	  0.001	  0.002	 25.600	 101.174	 -99999.000
29576	  0.163	 -0.146	 -0.521	  0.091	 -0.343	  9.908	 -0.007	 -0.001	  0.006	 25.600	 101.159	 -99999.000
29625	  0.160	 -0.149	 -0.524	  0.150	 -0.368	  9.872	 -0.006	  0.000	  0.005	 25.600	 101.174	 -99999.000
29676	  0.162	 -0.149	 -0.522	  0.115	 -0.347	  9.816	 -0.005	 -0.001	  0.005	 25.600	 101.163	 -99999.000
29726	  0.161	 -0.148	 -0.526	  0.184	 -0.354	  9.857	 -0.003	  0.001	  0.005	 25.600	 101.179	 -99999.000
29776	  0.160	 -0.150	 -0.524	  0.154	 -0.354	  9.825	  0.000	  0.004	  0.006	 25.600	 101.174	 -99999.000
29826	  0.162	 -0.145	 -0.524	  0.189	 -0.328	  9.878	  0.000	  0.006	  0.001	 25.600	 101.168	 -99999.000
29876	  0.160	 -0.141	 -0.519	  0.095	 -0.303	  9.857	 -0.002	  0.006	  0.001	 25.600	 101.163	 -99999.000
29926	  0.159	 -0.140	 -0.521	  0.137	 -0.307	  9.859	 -0.003	  0.005	  0.008	 25.600	 101.174	 -99999.000
29976	  0.163	 -0.147	 -0.526	  0.037	 -0.304	  9.832	 -0.003	  0.005	  0.003	 25.600	 101.163	 -99999.000
30026	  0.163	 -0.148	 -0.519	  0.101	 -0.312	  9.822	 -0.005	  0.002	  0.005	 25.600	 101.174	 -99999.000
30076	  0.162	 -0.148	 -0.524	  0.103	 -0.316	  9.853	 -0.006	  0.002	  0.007	 25.600	 101.174	 -99999.000
30126	  0.162	 -0.148	 -0.519	  0.126	 -0.338	  9.849	 -0.006	  0.001	  0.008	 25.600	 101.174	 -99999.000
30176	  0.163	 -0.150	 -0.522	  0.159	 -0.326	  9.828	 -0.004	 -0.001	  0.007	 25.600	 101.179	 -99999.000
30225	  0.161	 -0.153	 -0.524	  0.161	 -0.354	  9.882	 -0.003	 -0.000	  0.004	 25.600	 101.174	 -99999.000
30275	  0.161	 -0.152	 -0.523	  0.177	 -0.356	  9.857	 -0.002	  0.002	  0.003	 25.600	 101.174	 -99999.000
30325	  0.161	 -0.148	 -0.520	  0.160	 -0.338	  9.810	  0.000	  0.005	  0.004	 25.600	 101.174	 -99999.000
30375	  0.162	 -0.149	 -0.522	  0.158	 -0.353	  9.874	 -0.001	  0.005	  0.004	 25.600	 101.179	 -99999.000
30425	  0.162	 -0.150	 -0.522	  0.106	 -0.324	  9.862	 -0.002	  0.006	  0.002	 25.600	 101.163	 -99999.000
30475	  0.161	 -0.152	 -0.522	  0.100	 -0.313	  9.856	 -0.002	  0.005	  0.006	 25.600	 101.168	 -99999.000
30525	  0.161	 -0.152	 -0.521	  0.118	 -0.264	  9.893	 -0.004	  0.003	  0.003	 25.600	 101.168	 -99999.000
30575	  0.159	 -0.156	 -0.523	  0.137	 -0.331	  9.904	 -0.005	  0.002	  0.006	 25.600	 101.168	 -99999.000
30625	  0.161	 -0.147	 -0.521	  0.083	 -0.339	  9.822	 -0.006	 -0.001	  0.004	 25.600	 101.179	 -99999.000
30675	  0.164	 -0.152	 -0.519	  0.168	 -0.332	  9.948	 -0.005	  0.000	  0.010	 25.600	 101.163	 -99999.000
30725	  0.162	 -0.142	 -0.523	  0.151	 -0.312	  9.856	 -0.005	  0.001	  0.001	 25.600	 101.174	 -99999.000
30775	  0.162	 -0.149	 -0.519	  0.146	 -0.313	  9.849	 -0.004	  0.001	  0.009	 25.600	 101.163	 -99999.000
30825	  0.161	 -0.152	 -0.527	  0.180	 -0.370	  9.874	 -0.002	  0.003	  0.003	 25.600	 101.168	 -99999.000
30875	  0.162	 -0.142	 -0.519	  0.121	 -0.326	  9.932	 -0.002	  0.004	  0.006	 25.600	 101.179	 -99999.000
30925	  0.160	 -0.152	 -0.524	  0.152	 -0.302	  9.871	 -0.002	  0.006	  0.003	 25.600	 101.163	 -99999.000
30975	  0.161	 -0.148	 -0.525	  0.091	 -0.329	  9.879	 -0.002	  0.005	  0.004	 25.600	 101.190	 -99999.000
31025	  0.160	 -0.152	 -0.524	  0.123	 -0.287	  9.862	 -0.002	  0.005	  0.001	 25.600	 101.179	 -99999.000
31075	  0.161	 -0.152	 -0.527	  0.069	 -0.324	  9.857	 -0.004	  0.002	  0.012	 25.600	 101.163	 -99999.000
31125	  0.161	 -0.152	 -0.522	  0.095	 -0.272	  9.873	 -0.004	  0.000	  0.003	 25.600	 101.174	 -99999.000
31175	  0.162	 -0.151	 -0.528	  0.132	 -0.345	  9.898	 -0.004	 -0.001	  0.009	 25.600	 101.179	 -99999.000
31225	  0.162	 -0.149	 -0.520	  0.135	 -0.302	  9.879	 -0.003	 -0.000	  0.002	 25.600	 101.168	 -99999.000
31275	  0.162	 -0.147	 -0.523	  0.118	 -0.385	  9.930	 -0.003	  0.002	  0.008	 25.600	 101.168	 -99999.000
31325	  0.161	 -0.150	 -0.522	  0.203	 -0.295	  9.908	 -0.004	  0.003	  0.004	 25.600	 101.163	 -99999.000
31375	  0.161	 -0.153	 -0.523	  0.147	 -0.368	  9.867	 -0.003	  0.005	  0.006	 25.600	 101.168	 -99999.000
31425	  0.161	 -0.153	 -0.527	  0.179	 -0.336	  9.981	 -0.002	  0.006	  0.002	 25.600	 101.179	 -99999.000
31475	  0.160	 -0.147	 -0.523	  0.065	 -0.304	  9.909	 -0.003	  0.005	  0.003	 25.600	 101.174	 -99999.000
31525	  0.162	 -0.147	 -0.518	  0.186	 -0.288	  9.860	 -0.003	  0.005	  0.003	 25.600	 101.179	 -99999.000
31576	  0.161	 -0.150	 -0.524	  0.101	 -0.333	  9.878	 -0.004	  0.004	  0.005	 25.600	 101.179	 -99999.000
31625	  0.162	 -0.154	 -0.524	  0.092	 -0.297	  9.886	 -0.003	  0.002	  0.009	 25.600	 101.168	 -99999.000
31675	  0.162	 -0.148	 -0.527	  0.119	 -0.291	  9.873	 -0.002	  0.002	  0.003	 25.600	 101.168	 -99999.000
31725	  0.160	 -0.149	 -0.520	  0.109	 -0.323	  9.889	 -0.003	  0.000	  0.007	 25.600	 101.163	 -99999.000
31775	  0.162	 -0.154	 -0.529	  0.144	 -0.328	  9.853	 -0.003	 -0.000	  0.007	 25.600	 101.179	 -99999.000
31825	  0.160	 -0.149	 -0.525	  0.140	 -0.327	  9.905	 -0.004	  0.000	  0.003	 25.600	 101.168	 -99999.000
31875	  0.161	 -0.153	 -0.520	  0.175	 -0.311	  9.899	 -0.003	  0.004	  0.004	 25.600	 101.179	 -99999.000
31925	  0.159	 -0.148	 -0.521	  0.182	 -0.321	  9.853	 -0.004	  0.006	  0.003	 25.600	 101.168	 -99999.000
31975	  0.158	 -0.149	 -0.524	  0.179	 -0.347	  9.864	 -0.004	  0.005	  0.004	 25.600	 101.168	 -99999.000
32025	  0.162	 -0.142	 -0.520	  0.172	 -0.355	  9.837	 -0.005	  0.003	  0.002	 25.600	 101.168	 -99999.000
32075	  0.161	 -0.150	 -0.524	  0.080	 -0.287	  9.854	 -0.002	  0.003	  0.003	 25.600	 101.174	 -99999.000
32125	  0.161	 -0.149	 -0.524	  0.090	 -0.381	  9.883	 -0.004	 -0.000	  0.001	 25.600	 101.179	 -99999.000
32175	  0.161	 -0.145	 -0.520	  0.108	 -0.280	  9.900	 -0.005	  0.001	  0.005	 25.600	 101.172	 -99999.000
32225	  0.161	 -0.149	 -0.523	  0.164	 -0.398	  9.870	 -0.003	 -0.001	  0.005	 25.600	 101.179	 -99999.000
32275	  0.163	 -0.143	 -0.521	  0.195	 -0.305	  9.879	 -0.004	  0.002	  0.006	 25.600	 101.168	 -99999.000
32325	  0.162	 -0.146	 -0.525	  0.111	 -0.365	  9.895	 -0.002	  0.003	  0.004	 25.600	 101.168	 -99999.000
32375	  0.162	 -0.149	 -0.521	  0.134	 -0.314	  9.900	 -0.002	  0.004	  0.003	 25.600	 101.179	 -99999.000
32425	  0.161	 -0.140	 -0.524	  0.128	 -0.318	  9.866	 -0.003	  0.004	  0.006	 25.600	 101.168	 -99999.000
32475	  0.162	 -0.147	 -0.520	  0.188	 -0.335	  9.824	 -0.003	  0.004	  0.003	 25.600	 101.179	 -99999.000
32525	  0.162	 -0.149	 -0.520	  0.151	 -0.314	  9.808	 -0.004	  0.004	  0.007	 25.600	 101.168	 -99999.000
32575	  0.162	 -0.139	 -0.521	  0.102	 -0.319	  9.823	 -0.003	  0.003	  0.003	 25.600	 101.179	 -99999.000
32625	  0.162	 -0.149	 -0.519	  0.109	 -0.336	  9.823	 -0.005	  0.002	  0.005	 25.600	 101.168	 -99999.000
32675	  0.162	 -0.148	 -0.523	  0.139	 -0.234	  9.462	 -0.003	  0.002	  0.010	 25.600	 101.168	 -99999.000
32725	  0.161	 -0.153	 -0.520	  0.040	 -0.824	 10.257	 -0.008	 -0.000	 -0.030	 25.600	 101.168	 -99999.000
32775	  0.161	 -0.152	 -0.523	  0.229	  0.221	 10.492	 -0.008	  0.004	  0.015	 25.600	 101.168	 -99999.000
32825	  0.164	 -0.146	 -0.521	  0.123	 -0.505	  9.979	 -0.006	  0.001	  0.014	 25.600	 101.168	 -99999.000
32875	  0.162	 -0.151	 -0.526	  0.179	 -0.254	  9.782	 -0.006	  0.002	 -0.009	 25.600	 101.183	 -99999.000
32925	  0.160	 -0.149	 -0.523	  0.147	 -0.458	  9.755	 -0.001	  0.003	  0.009	 25.600	 101.168	 -99999.000
32975	  0.162	 -0.144	 -0.524	  0.162	 -0.375	  9.792	  0.001	  0.003	 -0.013	 25.600	 101.156	 -99999.000
33025	  0.163	 -0.149	 -0.519	  0.132	 -0.323	  9.862	 -0.001	  0.002	  0.012	 25.600	 101.179	 -99999.000
33075	  0.160	 -0.148	 -0.524	  0.188	 -0.330	  9.920	 -0.001	  0.004	  0.003	 25.600	 101.168	 -99999.000
33125	  0.164	 -0.150	 -0.525	  0.089	 -0.289	  9.869	 -0.003	  0.002	  0.005	 25.600	 101.168	 -99999.000
33175	  0.160	 -0.144	 -0.519	  0.132	 -0.195	  9.700	 -0.003	  0.003	  0.019	 25.600	 101.168	 -99999.000
33225	  0.164	 -0.148	 -0.520	  0.126	 -0.548	  9.526	 -0.003	 -0.000	 -0.001	 25.600	 101.168	 -99999.000
33275	  0.162	 -0.141	 -0.521	  0.207	 -0.335	  9.850	 -0.009	  0.002	 -0.001	 25.600	 101.168	 -99999.000
33325	  0.163	 -0.152	 -0.522	  0.107	 -0.334	  9.898	 -0.006	  0.001	  0.016	 25.600	 101.179	 -99999.000
33375	  0.162	 -0.151	 -0.526	  0.227	 -0.335	  9.880	 -0.004	  0.002	 -0.005	 25.600	 101.168	 -99999.000
33425	  0.162	 -0.149	 -0.521	  0.116	 -0.394	  9.836	 -0.002	  0.004	  0.003	 25.600	 101.172	 -99999.000
33475	  0.162	 -0.147	 -0.523	  0.205	 -0.367	  9.885	 -0.000	  0.005	  0.002	 25.600	 101.179	 -99999.000
33525	  0.164	 -0.150	 -0.522	  0.041	 -0.293	  9.851	  0.001	  0.004	  0.008	 25.600	 101.172	 -99999.000
33575	  0.162	 -0.151	 -0.527	  0.155	 -0.305	  9.876	 -0.001	  0.003	  0.003	 25.600	 101.183	 -99999.000
33625	  0.162	 -0.149	 -0.526	  0.085	 -0.281	  9.856	 -0.004	  0.003	  0.001	 25.600	 101.156	 -99999.000
33675	  0.163	 -0.142	 -0.520	  0.142	 -0.388	  9.893	 -0.005	  0.000	  0.007	 25.600	 101.172	 -99999.000
33725	  0.162	 -0.152	 -0.527	  0.070	 -0.218	  9.905	 -0.006	  0.001	  0.003	 25.600	 101.172	 -99999.000
33775	  0.161	 -0.147	 -0.523	  0.186	 -0.475	  9.934	 -0.008	 -0.002	  0.008	 25.600	 101.172	 -99999.000
33825	  0.163	 -0.149	 -0.522	  0.225	 -0.273	  9.883	 -0.006	  0.001	  0.004	 25.600	 101.183	 -99999.000
33875	  0.162	 -0.147	 -0.520	  0.043	 -0.411	  9.898	 -0.004	  0.002	  0.001	 25.600	 101.172	 -99999.000
33925	  0.161	 -0.141	 -0.522	  0.203	 -0.295	  9.908	 -0.002	  0.003	  0.003	 25.600	 101.172	 -99999.000
33975	  0.162	 -0.141	 -0.520	  0.096	 -0.340	  9.820	 -0.001	  0.003	  0.002	 25.600	 101.168	 -99999.000
34025	  0.162	 -0.150	 -0.519	  0.188	 -0.341	  9.886	 -0.002	  0.005	  0.003	 25.600	 101.183	 -99999.000
34075	  0.162	 -0.150	 -0.520	  0.059	 -0.299	  9.864	 -0.001	  0.005	  0.001	 25.600	 101.172	 -99999.000
34125	  0.161	 -0.147	 -0.520	  0.128	 -0.325	  9.899	 -0.004	  0.003	  0.011	 25.600	 101.161	 -99999.000
34175	  0.162	 -0.148	 -0.524	  0.120	 -0.288	  9.844	 -0.005	  0.003	 -0.002	 25.600	 101.168	 -99999.000
34225	  0.161	 -0.154	 -0.522	  0.084	 -0.318	  9.894	 -0.005	  0.001	  0.010	 25.600	 101.183	 -99999.000
34275	  0.162	 -0.149	 -0.524	  0.145	 -0.319	  9.871	 -0.005	 -0.000	  0.003	 25.600	 101.161	 -99999.000
46876	  0.162	 -0.140	 -0.525	  0.105	 -0.334	  9.872	 -0.003	  0.003	  0.004	 25.700	 101.174	 -0.205
46926	  0.162	 -0.148	 -0.525	  0.147	 -0.318	  9.859	 -0.003	  0.003	  0.005	 25.700	 101.178	 -0.547
46976	  0.164	 -0.146	 -0.519	  0.098	 -0.323	  9.850	 -0.004	  0.004	  0.002	 25.700	 101.174	 -0.205
47026	  0.163	 -0.150	 -0.528	  0.132	 -0.315	  9.896	 -0.002	  0.003	  0.007	 25.700	 101.174	 -0.205
47076	  0.163	 -0.147	 -0.526	  0.122	 -0.321	  9.889	 -0.004	  0.002	  0.006	 25.700	 101.178	 -0.547
47126	  0.161	 -0.150	 -0.523	  0.130	 -0.338	  9.860	 -0.004	  0.002	  0.003	 25.700	 101.178	 -0.547
47176	  0.163	 -0.150	 -0.524	  0.129	 -0.359	  9.873	 -0.004	  0.002	  0.006	 25.700	 101.174	 -0.205
47226	  0.163	 -0.149	 -0.528	  0.161	 -0.350	  9.885	 -0.003	  0.003	  0.006	 25.700	 101.178	 -0.547
47276	  0.162	 -0.139	 -0.524	  0.095	 -0.340	  9.881	 -0.002	  0.003	  0.005	 25.700	 101.162	  0.824
47326	  0.163	 -0.150	 -0.523	  0.154	 -0.328	  9.903	 -0.003	  0.004	  0.003	 25.700	 101.178	 -0.547
47376	  0.161	 -0.154	 -0.526	  0.130	 -0.321	  9.838	 -0.003	  0.005	  0.004	 25.700	 101.162	  0.824
47426	  0.163	 -0.151	 -0.523	  0.116	 -0.334	  9.886	 -0.003	  0.003	  0.007	 25.700	 101.167	  0.396
47476	  0.160	 -0.147	 -0.523	  0.134	 -0.289	  9.913	 -0.004	  0.003	  0.005	 25.700	 101.167	  0.396
47526	  0.162	 -0.145	 -0.523	  0.074	 -0.355	  9.888	 -0.004	  0.001	  0.004	 25.700	 101.167	  0.396
47576	  0.164	 -0.148	 -0.524	  0.142	 -0.310	  9.876	 -0.004	  0.002	  0.003	 25.700	 101.178	 -0.547
47626	  0.163	 -0.148	 -0.521	  0.140	 -0.348	  9.817	 -0.003	  0.002	  0.007	 25.700	 101.178	 -0.547
47676	  0.163	 -0.152	 -0.524	  0.178	 -0.319	  9.852	 -0.003	  0.002	  0.004	 25.700	 101.178	 -0.547
47726	  0.163	 -0.146	 -0.523	  0.135	 -0.359	  9.852	 -0.004	  0.003	  0.003	 25.700	 101.178	 -0.547
47776	  0.162	 -0.146	 -0.523	  0.169	 -0.311	  9.884	 -0.003	  0.004	  0.005	 25.700	 101.167	  0.396
47826	  0.163	 -0.149	 -0.527	  0.150	 -0.304	  9.864	 -0.003	  0.006	  0.004	 25.700	 101.167	  0.396
47876	  0.162	 -0.151	 -0.529	  0.118	 -0.366	  9.862	 -0.004	  0.002	  0.007	 25.700	 101.167	  0.396
47926	  0.162	 -0.147	 -0.524	  0.160	 -0.327	  9.880	 -0.003	  0.003	  0.002	 25.700	 101.178	 -0.547
47976	  0.163	 -0.149	 -0.525	  0.080	 -0.356	  9.869	 -0.003	  0.002	  0.004	 25.700	 101.178	 -0.547
48026	  0.162	 -0.149	 -0.528	  0.122	 -0.318	  9.895	 -0.003	  0.001	  0.004	 25.700	 101.178	 -0.547
48076	  0.162	 -0.150	 -0.523	  0.106	 -0.340	  9.868	 -0.004	  0.002	  0.005	 25.700	 101.167	  0.396
48126	  0.163	 -0.142	 -0.526	  0.140	 -0.344	  9.879	 -0.001	  0.001	  0.006	 25.700	 101.178	 -0.547
48176	  0.163	 -0.137	 -0.523	  0.135	 -0.332	  9.853	 -0.003	  0.003	  0.005	 25.700	 101.178	 -0.547
48226	  0.163	 -0.148	 -0.525	  0.157	 -0.329	  9.878	 -0.003	  0.002	  0.005	 25.700	 101.167	  0.396
48276	  0.162	 -0.143	 -0.524	  0.206	 -0.312	  9.828	 -0.002	  0.002	  0.004	 25.700	 101.171	  0.053
48326	  0.162	 -0.152	 -0.524	  0.098	 -0.348	  9.874	 -0.004	  0.002	  0.006	 25.700	 101.178	 -0.547
48376	  0.162	 -0.147	 -0.528	  0.173	 -0.329	  9.842	 -0.003	  0.004	  0.002	 25.700	 101.167	  0.396
48426	  0.162	 -0.146	 -0.522	  0.102	 -0.360	  9.843	 -0.003	  0.005	  0.005	 25.700	 101.178	 -0.547
48476	  0.163	 -0.149	 -0.523	  0.142	 -0.317	  9.890	 -0.002	  0.004	  0.004	 25.700	 101.178	 -0.547
48526	  0.163	 -0.151	 -0.524	  0.110	 -0.340	  9.855	 -0.004	  0.003	  0.003	 25.700	 101.167	  0.396
48576	  0.162	 -0.137	 -0.525	  0.148	 -0.337	  9.875	 -0.003	  0.002	  0.004	 25.700	 101.193	 -1.834
48626	  0.162	 -0.148	 -0.522	  0.106	 -0.293	  9.916	 -0.003	  0.002	  0.005	 25.700	 101.178	 -0.547
48676	  0.162	 -0.151	 -0.525	  0.164	 -0.341	  9.894	 -0.004	  0.002	  0.005	 25.700	 101.171	  0.053
48726	  0.162	 -0.142	 -0.519	  0.148	 -0.334	  9.847	 -0.004	  0.002	  0.005	 25.700	 101.167	  0.396
48776	  0.163	 -0.149	 -0.527	  0.152	 -0.378	  9.839	 -0.003	  0.003	  0.006	 25.700	 101.167	  0.396
48826	  0.162	 -0.149	 -0.523	  0.159	 -0.310	  9.880	 -0.004	  0.003	  0.005	 25.700	 101.167	  0.396
48876	  0.163	 -0.153	 -0.529	  0.163	 -0.353	  9.875	 -0.003	  0.003	  0.007	 25.700	 101.178	 -0.547
48926	  0.163	 -0.149	 -0.524	  0.152	 -0.291	  9.831	 -0.003	  0.004	  0.003	 25.700	 101.178	 -0.547
48976	  0.164	 -0.146	 -0.520	  0.121	 -0.313	  9.871	 -0.003	  0.003	  0.005	 25.700	 101.171	  0.053
49027	  0.162	 -0.149	 -0.523	  0.127	 -0.317	  9.868	 -0.004	  0.002	  0.002	 25.700	 101.178	 -0.547
49076	  0.163	 -0.146	 -0.528	  0.128	 -0.354	  9.877	 -0.005	  0.003	  0.007	 25.700	 101.167	  0.396
49126	  0.162	 -0.147	 -0.524	  0.159	 -0.339	  9.855	 -0.004	  0.002	  0.004	 25.700	 101.167	  0.396
49176	  0.164	 -0.151	 -0.530	  0.118	 -0.350	  9.862	 -0.004	  0.003	  0.007	 25.700	 101.167	  0.396
49226	  0.162	 -0.148	 -0.521	  0.162	 -0.332	  9.904	 -0.003	  0.001	  0.004	 25.700	 101.171	  0.053
49276	  0.162	 -0.149	 -0.524	  0.129	 -0.286	  9.882	 -0.002	  0.003	  0.004	 25.700	 101.167	  0.396
49326	  0.162	 -0.149	 -0.526	  0.136	 -0.344	  9.890	 -0.003	  0.003	  0.006	 25.700	 101.156	  1.340
49376	  0.162	 -0.146	 -0.522	  0.160	 -0.309	  9.862	 -0.003	  0.002	  0.005	 25.700	 101.182	 -0.891
49426	  0.162	 -0.147	 -0.524	  0.147	 -0.332	  9.866	 -0.003	  0.003	  0.007	 25.700	 101.167	  0.396
49476	  0.162	 -0.144	 -0.521	  0.142	 -0.314	  9.876	 -0.003	  0.003	  0.002	 25.700	 101.171	  0.053
49526	  0.163	 -0.142	 -0.521	  0.156	 -0.306	  9.885	 -0.004	  0.004	  0.002	 25.700	 101.167	  0.396
49576	  0.162	 -0.148	 -0.525	  0.127	 -0.383	  9.858	 -0.003	  0.001	  0.004	 25.700	 101.178	 -0.547
49626	  0.166	 -0.149	 -0.522	  0.123	 -0.261	  9.847	 -0.003	  0.002	  0.006	 25.700	 101.182	 -0.891
49676	  0.163	 -0.148	 -0.526	  0.142	 -0.350	  9.883	 -0.004	  0.002	  0.005	 25.700	 101.171	  0.053
49726	  0.162	 -0.146	 -0.525	  0.131	 -0.312	  9.874	 -0.004	  0.002	  0.004	 25.700	 101.167	  0.396
49776	  0.163	 -0.150	 -0.523	  0.131	 -0.346	  9.819	 -0.002	  0.002	  0.006	 25.700	 101.171	  0.053
49826	  0.163	 -0.144	 -0.523	  0.148	 -0.350	  9.831	 -0.003	  0.001	  0.005	 25.700	 101.167	  0.396
49876	  0.162	 -0.148	 -0.530	  0.175	 -0.336	  9.877	 -0.003	  0.004	  0.005	 25.700	 101.178	 -0.547
49926	  0.164	 -0.147	 -0.521	  0.111	 -0.342	  9.858	 -0.002	  0.003	  0.003	 25.700	 101.171	  0.053
49976	  0.162	 -0.145	 -0.524	  0.183	 -0.313	  9.884	 -0.003	  0.003	  0.008	 25.700	 101.171	  0.053
50026	  0.164	 -0.148	 -0.524	  0.101	 -0.356	  9.829	 -0.004	  0.003	  0.003	 25.700	 101.182	 -0.891
50076	  0.163	 -0.147	 -0.521	  0.147	 -0.287	  9.875	 -0.005	  0.002	  0.005	 25.700	 101.167	  0.396
50126	  0.162	 -0.148	 -0.525	  0.099	 -0.380	  9.899	 -0.004	  0.003	  0.005	 25.700	 101.171	  0.053
50176	  0.165	 -0.146	 -0.523	  0.132	 -0.338	  9.846	 -0.004	  0.003	  0.006	 25.700	 101.167	  0.396
50226	  0.163	 -0.140	 -0.525	  0.136	 -0.364	  9.869	 -0.003	  0.004	  0.002	 25.700	 101.160	  0.996
50276	  0.162	 -0.144	 -0.522	  0.098	 -0.323	  9.855	 -0.004	  0.002	  0.005	 25.700	 101.171	  0.053
50326	  0.161	 -0.146	 -0.524	  0.149	 -0.352	  9.892	 -0.004	  0.004	  0.004	 25.700	 101.182	 -0.891
50376	  0.162	 -0.146	 -0.518	  0.097	 -0.322	  9.879	 -0.003	  0.003	  0.004	 25.700	 101.171	  0.053
50426	  0.163	 -0.150	 -0.530	  0.162	 -0.320	  9.863	 -0.003	  0.003	  0.008	 25.700	 101.171	  0.053
50476	  0.162	 -0.152	 -0.526	  0.124	 -0.336	  9.894	 -0.003	  0.005	  0.003	 25.700	 101.182	 -0.891
50526	  0.164	 -0.145	 -0.524	  0.144	 -0.327	  9.848	 -0.004	  0.003	  0.007	 25.700	 101.171	  0.053
50576	  0.161	 -0.148	 -0.522	  0.132	 -0.353	  9.884	 -0.003	  0.003	  0.002	 25.700	 101.171	  0.053
50626	  0.163	 -0.144	 -0.523	  0.140	 -0.323	  9.883	 -0.003	  0.002	  0.004	 25.700	 101.160	  0.996
50676	  0.163	 -0.140	 -0.523	  0.129	 -0.345	  9.873	 -0.004	  0.002	  0.002	 25.700	 101.171	  0.053
50726	  0.162	 -0.150	 -0.521	  0.150	 -0.344	  9.875	 -0.003	  0.002	  0.003	 25.700	 101.171	  0.053
50776	  0.162	 -0.147	 -0.522	  0.147	 -0.346	  9.881	 -0.005	  0.003	  0.006	 25.700	 101.160	  0.996
50826	  0.164	 -0.146	 -0.521	  0.147	 -0.332	  9.868	 -0.003	  0.003	  0.007	 25.700	 101.171	  0.053
50876	  0.163	 -0.148	 -0.519	  0.128	 -0.346	  9.869	 -0.004	  0.005	  0.004	 25.700	 101.160	  0.996
50926	  0.162	 -0.151	 -0.525	  0.128	 -0.334	  9.882	 -0.003	  0.003	  0.004	 25.700	 101.171	  0.053
50976	  0.162	 -0.149	 -0.528	  0.138	 -0.331	  9.876	 -0.003	  0.002	  0.004	 25.700	 101.182	 -0.891
51026	  0.162	 -0.143	 -0.523	  0.130	 -0.315	  9.902	 -0.003	  0.003	  0.005	 25.700	 101.171	  0.053
51076	  0.162	 -0.148	 -0.529	  0.105	 -0.340	  9.893	 -0.003	  0.004	  0.005	 25.700	 101.178	 -0.547
51126	  0.162	 -0.150	 -0.525	  0.132	 -0.289	  9.879	 -0.003	  0.003	  0.006	 25.700	 101.171	  0.053
51176	  0.162	 -0.150	 -0.524	  0.128	 -0.357	  9.863	 -0.002	  0.002	  0.003	 25.700	 101.171	  0.053
51226	  0.164	 -0.151	 -0.528	  0.164	 -0.300	  9.897	 -0.004	  0.002	  0.006	 25.700	 101.171	  0.053
51276	  0.163	 -0.151	 -0.534	  0.122	 -0.353	  9.919	 -0.004	  0.004	  0.003	 25.700	 101.171	  0.053
51326	  0.162	 -0.153	 -0.521	  0.130	 -0.327	  9.837	 -0.003	  0.003	  0.006	 25.700	 101.171	  0.053
51376	  0.162	 -0.146	 -0.521	  0.159	 -0.353	  9.856	 -0.005	  0.002	  0.002	 25.700	 101.171	  0.053
51426	  0.163	 -0.143	 -0.522	  0.107	 -0.317	  9.900	 -0.003	  0.002	  0.006	 25.700	 101.160	  0.996
51476	  0.162	 -0.147	 -0.523	  0.158	 -0.336	  9.875	 -0.003	  0.005	  0.005	 25.700	 101.171	  0.053
51526	  0.163	 -0.149	 -0.524	  0.102	 -0.357	  9.857	 -0.004	  0.004	  0.004	 25.700	 101.167	  0.396
51576	  0.162	 -0.151	 -0.525	  0.172	 -0.293	  9.882	 -0.003	  0.003	  0.005	 25.700	 101.171	  0.053
51626	  0.162	 -0.143	 -0.521	  0.103	 -0.377	  9.870	 -0.003	  0.003	  0.002	 25.700	 101.171	  0.053
51676	  0.161	 -0.144	 -0.523	  0.151	 -0.281	  9.879	 -0.002	  0.003	  0.007	 25.700	 101.182	 -0.891
51726	  0.162	 -0.149	 -0.524	  0.126	 -0.344	  9.851	 -0.004	  0.002	  0.005	 25.700	 101.186	 -1.233
51776	  0.162	 -0.144	 -0.525	  0.134	 -0.320	  9.848	 -0.002	  0.001	  0.006	 25.700	 101.171	  0.053
51826	  0.162	 -0.148	 -0.522	  0.173	 -0.337	  9.899	 -0.004	  0.002	  0.002	 25.700	 101.171	  0.053
51876	  0.163	 -0.147	 -0.528	  0.108	 -0.321	  9.846	 -0.003	  0.002	  0.007	 25.700	 101.175	 -0.291
51926	  0.164	 -0.149	 -0.525	  0.175	 -0.323	  9.891	 -0.003	  0.003	  0.005	 25.700	 101.171	  0.053
51976	  0.163	 -0.144	 -0.523	  0.103	 -0.373	  9.886	 -0.004	  0.004	  0.003	 25.700	 101.175	 -0.291
52026	  0.162	 -0.150	 -0.523	  0.181	 -0.313	  9.865	 -0.004	  0.004	  0.007	 25.700	 101.171	  0.053
52076	  0.163	 -0.138	 -0.523	  0.099	 -0.327	  9.877	 -0.002	  0.003	  0.004	 25.700	 101.171	  0.053
52126	  0.163	 -0.147	 -0.519	  0.152	 -0.324	  9.878	 -0.003	  0.003	  0.006	 25.700	 101.171	  0.053
52176	  0.164	 -0.147	 -0.523	  0.125	 -0.338	  9.850	 -0.004	  0.002	  0.001	 25.700	 101.175	 -0.291
52227	  0.163	 -0.142	 -0.521	  0.131	 -0.317	  9.882	 -0.004	  0.002	  0.009	 25.700	 101.171	  0.053
52276	  0.163	 -0.147	 -0.522	  0.132	 -0.335	  9.865	 -0.003	  0.003	  0.003	 25.800	 101.186	 -1.233
52327	  0.165	 -0.145	 -0.520	  0.106	 -0.323	  9.842	 -0.004	  0.003	  0.005	 25.700	 101.160	  0.996
52376	  0.162	 -0.147	 -0.519	  0.192	 -0.339	  9.862	 -0.003	  0.001	  0.004	 25.700	 101.182	 -0.891
52427	  0.162	 -0.149	 -0.529	  0.117	 -0.333	  9.881	 -0.005	  0.001	  0.001	 25.800	 101.175	 -0.291
52477	  0.162	 -0.145	 -0.526	  0.152	 -0.351	  9.849	 -0.004	  0.003	  0.007	 25.700	 101.164	  0.653
52527	  0.163	 -0.140	 -0.522	  0.139	 -0.329	  9.854	 -0.003	  0.002	  0.005	 25.700	 101.171	  0.053
52577	  0.164	 -0.149	 -0.526	  0.153	 -0.355	  9.865	 -0.004	  0.003	  0.005	 25.700	 101.160	  0.996
52627	  0.162	 -0.149	 -0.523	  0.139	 -0.342	  9.865	 -0.004	  0.005	  0.002	 25.700	 101.171	  0.053
52677	  0.163	 -0.149	 -0.521	  0.107	 -0.378	  9.855	 -0.003	  0.002	  0.007	 25.800	 101.175	 -0.291
52727	  0.162	 -0.149	 -0.525	  0.158	 -0.319	  9.849	 -0.004	  0.004	  0.003	 25.700	 101.171	  0.053
52777	  0.161	 -0.153	 -0.523	  0.124	 -0.345	  9.904	 -0.003	  0.002	  0.005	 25.700	 101.160	  0.996
52826	  0.165	 -0.150	 -0.524	  0.130	 -0.323	  9.871	 -0.004	  0.002	  0.005	 25.800	 101.175	 -0.291
52877	  0.163	 -0.152	 -0.519	  0.132	 -0.305	  9.887	 -0.003	  0.002	  0.004	 25.700	 101.182	 -0.891
52927	  0.160	 -0.138	 -0.521	  0.150	 -0.336	  9.832	 -0.003	  0.002	  0.003	 25.800	 101.186	 -1.233
52977	  0.164	 -0.150	 -0.521	  0.123	 -0.324	  9.872	 -0.004	  0.003	  0.004	 25.700	 101.171	  0.053
53027	  0.161	 -0.149	 -0.523	  0.157	 -0.340	  9.886	 -0.004	  0.003	  0.006	 25.800	 101.175	 -0.291
53077	  0.163	 -0.153	 -0.524	  0.143	 -0.335	  9.858	 -0.002	  0.004	  0.005	 25.700	 101.175	 -0.291
53127	  0.162	 -0.149	 -0.528	  0.152	 -0.349	  9.899	 -0.002	  0.003	  0.004	 25.800	 101.175	 -0.291
53177	  0.164	 -0.149	 -0.528	  0.162	 -0.323	  9.871	 -0.003	  0.005	  0.001	 25.700	 101.175	 -0.291
53227	  0.162	 -0.149	 -0.526	  0.126	 -0.359	  9.864	 -0.003	  0.003	  0.005	 25.800	 101.164	  0.653
53277	  0.162	 -0.143	 -0.525	  0.117	 -0.322	  9.858	 -0.003	  0.004	  0.008	 25.800	 101.164	  0.653
53327	  0.161	 -0.145	 -0.522	  0.159	 -0.329	  9.869	 -0.002	  0.003	  0.003	 25.700	 101.175	 -0.291
53377	  0.164	 -0.146	 -0.522	  0.108	 -0.313	  9.886	 -0.005	  0.002	  0.004	 25.700	 101.171	  0.053
53427	  0.162	 -0.147	 -0.522	  0.110	 -0.358	  9.840	 -0.004	  0.002	  0.006	 25.800	 101.175	 -0.291
53477	  0.162	 -0.146	 -0.523	  0.137	 -0.308	  9.872	 -0.004	  0.001	  0.002	 25.700	 101.171	  0.053
53527	  0.160	 -0.151	 -0.521	  0.139	 -0.360	  9.872	 -0.003	  0.002	  0.007	 25.800	 101.175	 -0.291
53577	  0.162	 -0.153	 -0.526	  0.156	 -0.350	  9.889	 -0.003	  0.002	  0.005	 25.800	 101.175	 -0.291
53627	  0.162	 -0.146	 -0.518	  0.083	 -0.313	  9.847	 -0.003	  0.002	  0.004	 25.800	 101.175	 -0.291
53677	  0.160	 -0.147	 -0.521	  0.191	 -0.356	  9.866	 -0.003	  0.002	  0.002	 25.800	 101.175	 -0.291
53727	  0.163	 -0.144	 -0.522	  0.118	 -0.325	  9.895	 -0.002	  0.003	  0.003	 25.800	 101.164	  0.653
53776	  0.160	 -0.151	 -0.525	  0.124	 -0.334	  9.868	 -0.003	  0.004	  0.006	 25.800	 101.175	 -0.291
53826	  0.162	 -0.146	 -0.522	  0.115	 -0.320	  9.900	 -0.003	  0.003	  0.005	 25.800	 101.175	 -0.291
53876	  0.162	 -0.149	 -0.525	  0.131	 -0.364	  9.868	 -0.003	  0.003	  0.006	 25.700	 101.171	  0.053
53926	  0.164	 -0.150	 -0.528	  0.140	 -0.319	  9.894	 -0.004	  0.001	 -0.001	 25.800	 101.164	  0.653
53976	  0.161	 -0.147	 -0.520	  0.086	 -0.358	  9.896	 -0.003	  0.002	  0.003	 25.800	 101.164	  0.653
54026	  0.162	 -0.149	 -0.523	  0.152	 -0.338	  9.896	 -0.003	  0.003	  0.007	 25.800	 101.186	 -1.233
54076	  0.162	 -0.152	 -0.523	  0.136	 -0.330	  9.880	 -0.002	  0.002	  0.007	 25.800	 101.175	 -0.291
54126	  0.162	 -0.148	 -0.532	  0.140	 -0.315	  9.866	 -0.003	  0.004	  0.003	 25.800	 101.175	 -0.291
54176	  0.163	 -0.151	 -0.518	  0.149	 -0.328	  9.874	 -0.003	  0.002	  0.005	 25.700	 101.175	 -0.291
54226	  0.162	 -0.151	 -0.523	  0.118	 -0.315	  9.885	 -0.002	  0.003	  0.004	 25.800	 101.175	 -0.291
54276	  0.163	 -0.147	 -0.522	  0.153	 -0.355	  9.888	 -0.001	  0.003	  0.005	 25.800	 101.164	  0.653
54326	  0.164	 -0.149	 -0.521	  0.135	 -0.323	  9.857	 -0.002	  0.001	  0.004	 25.800	 101.175	 -0.291
54376	  0.162	 -0.149	 -0.522	  0.159	 -0.379	  9.875	 -0.003	  0.002	  0.004	 25.800	 101.175	 -0.291
54426	  0.162	 -0.147	 -0.524	  0.112	 -0.308	  9.845	 -0.004	  0.002	  0.006	 25.800	 101.175	 -0.291
54476	  0.162	 -0.144	 -0.522	  0.167	 -0.347	  9.903	 -0.005	  0.002	  0.006	 25.800	 101.164	  0.653
54526	  0.163	 -0.150	 -0.526	  0.099	 -0.357	  9.870	 -0.004	  0.002	  0.002	 25.800	 101.160	  0.996
54576	  0.163	 -0.150	 -0.524	  0.201	 -0.346	  9.889	 -0.003	  0.002	  0.006	 25.800	 101.175	 -0.291
54626	  0.162	 -0.154	 -0.524	  0.136	 -0.348	  9.869	 -0.003	  0.004	  0.004	 25.800	 101.180	 -0.719
54676	  0.161	 -0.150	 -0.526	  0.120	 -0.338	  9.863	 -0.003	  0.004	  0.008	 25.800	 101.191	 -1.662
54726	  0.162	 -0.148	 -0.521	  0.132	 -0.360	  9.887	 -0.004	  0.003	  0.002	 25.800	 101.180	 -0.719
54776	  0.163	 -0.150	 -0.524	  0.119	 -0.321	  9.885	 -0.002	  0.003	  0.006	 25.800	 101.175	 -0.291
54826	  0.165	 -0.154	 -0.528	  0.140	 -0.322	  9.905	 -0.004	  0.003	  0.004	 25.800	 101.180	 -0.719
54876	  0.163	 -0.149	 -0.525	  0.107	 -0.322	  9.886	 -0.003	  0.003	  0.004	 25.800	 101.175	 -0.291
54926	  0.165	 -0.147	 -0.521	  0.161	 -0.327	  9.902	 -0.003	  0.002	  0.005	 25.800	 101.180	 -0.719
54976	  0.163	 -0.141	 -0.521	  0.126	 -0.364	  9.897	 -0.003	  0.003	  0.004	 25.800	 101.175	 -0.291
55026	  0.164	 -0.150	 -0.525	  0.153	 -0.315	  9.834	 -0.003	  0.002	  0.007	 25.800	 101.180	 -0.719
55076	  0.165	 -0.149	 -0.523	  0.180	 -0.348	  9.872	 -0.002	  0.002	  0.002	 25.800	 101.180	 -0.719
55126	  0.162	 -0.147	 -0.521	  0.135	 -0.321	  9.887	 -0.005	  0.003	  0.004	 25.800	 101.175	 -0.291
55176	  0.162	 -0.151	 -0.525	  0.179	 -0.324	  9.891	 -0.003	  0.003	  0.007	 25.800	 101.175	 -0.291
55226	  0.162	 -0.150	 -0.523	  0.093	 -0.336	  9.847	 -0.006	  0.003	  0.003	 25.800	 101.164	  0.653
55276	  0.163	 -0.146	 -0.524	  0.173	 -0.316	  9.875	 -0.003	  0.004	  0.006	 25.800	 101.168	  0.310
55326	  0.163	 -0.146	 -0.519	  0.090	 -0.386	  9.868	 -0.004	  0.003	  0.001	 25.800	 101.164	  0.653
55376	  0.165	 -0.146	 -0.521	  0.131	 -0.319	  9.888	 -0.003	  0.003	  0.006	 25.800	 101.175	 -0.291
55426	  0.164	 -0.148	 -0.522	  0.089	 -0.367	  9.892	 -0.004	  0.002	  0.003	 25.800	 101.164	  0.653
55476	  0.162	 -0.151	 -0.522	  0.116	 -0.316	  9.876	 -0.003	  0.002	  0.007	 25.800	 101.168	  0.310
55526	  0.162	 -0.151	 -0.522	  0.120	 -0.341	  9.878	 -0.003	  0.002	  0.006	 25.800	 101.175	 -0.291
55576	  0.162	 -0.146	 -0.523	  0.152	 -0.305	  9.892	 -0.002	  0.001	  0.006	 25.800	 101.175	 -0.291
55626	  0.162	 -0.145	 -0.526	  0.190	 -0.340	  9.853	 -0.003	  0.001	  0.003	 25.800	 101.168	  0.310
55676	  0.164	 -0.152	 -0.520	  0.148	 -0.342	  9.933	 -0.003	  0.003	  0.005	 25.800	 101.175	 -0.291
55726	  0.163	 -0.148	 -0.529	  0.161	 -0.318	  9.912	 -0.004	  0.003	  0.006	 25.800	 101.168	  0.310
55776	  0.164	 -0.148	 -0.522	  0.146	 -0.350	  9.882	 -0.004	  0.004	  0.002	 25.800	 101.168	  0.310
55826	  0.161	 -0.156	 -0.525	  0.174	 -0.310	  9.868	 -0.004	  0.004	  0.004	 25.800	 101.168	  0.310
55876	  0.162	 -0.150	 -0.522	  0.114	 -0.363	  9.893	 -0.003	  0.004	  0.004	 25.800	 101.180	 -0.719
55926	  0.161	 -0.147	 -0.527	  0.113	 -0.326	  9.890	 -0.004	  0.003	  0.004	 25.800	 101.180	 -0.719
55976	  0.163	 -0.151	 -0.525	  0.118	 -0.335	  9.910	 -0.003	  0.003	  0.003	 25.800	 101.168	  0.310
56026	  0.163	 -0.148	 -0.522	  0.094	 -0.323	  9.883	 -0.004	  0.002	  0.006	 25.800	 101.180	 -0.719
56076	  0.162	 -0.147	 -0.522	  0.115	 -0.308	  9.860	 -0.003	  0.001	  0.005	 25.800	 101.180	 -0.719
56126	  0.162	 -0.144	 -0.521	  0.149	 -0.368	  9.877	 -0.004	  0.001	  0.002	 25.800	 101.168	  0.310
56176	  0.166	 -0.147	 -0.520	  0.134	 -0.302	  9.887	 -0.005	  0.002	  0.005	 25.800	 101.168	  0.310
56226	  0.163	 -0.145	 -0.522	  0.160	 -0.392	  9.886	 -0.005	  0.002	  0.011	 25.800	 101.180	 -0.719
56276	  0.164	 -0.148	 -0.523	  0.169	 -0.283	  9.863	 -0.004	  0.004	  0.005	 25.800	 101.180	 -0.719
56326	  0.162	 -0.152	 -0.528	  0.117	 -0.406	  9.845	 -0.001	  0.003	  0.005	 25.800	 101.180	 -0.719
56376	  0.162	 -0.144	 -0.520	  0.139	 -0.304	  9.878	  0.000	  0.004	 -0.004	 25.800	 101.180	 -0.719
56426	  0.165	 -0.150	 -0.519	  0.084	 -0.341	  9.868	 -0.002	  0.002	  0.013	 25.800	 101.180	 -0.719
56476	  0.162	 -0.147	 -0.524	  0.176	 -0.268	  9.872	 -0.003	  0.001	  0.002	 25.800	 101.164	  0.653
56526	  0.161	 -0.149	 -0.524	  0.082	 -0.328	  9.859	 -0.004	  0.001	  0.006	 25.800	 101.180	 -0.719
56576	  0.163	 -0.142	 -0.521	  0.200	 -0.305	  9.862	 -0.004	  0.001	  0.004	 25.800	 101.168	  0.310
56626	  0.162	 -0.149	 -0.522	  0.101	 -0.339	  9.862	 -0.005	  0.002	  0.005	 25.800	 101.168	  0.310
56676	  0.163	 -0.142	 -0.523	  0.207	 -0.302	  9.928	 -0.005	  0.002	  0.002	 25.800	 101.168	  0.310
56726	  0.165	 -0.142	 -0.523	  0.125	 -0.360	  9.894	 -0.003	  0.005	  0.001	 25.800	 101.168	  0.310
56776	  0.162	 -0.148	 -0.525	  0.170	 -0.357	  9.902	 -0.004	  0.004	  0.004	 25.800	 101.168	  0.310
56826	  0.162	 -0.149	 -0.523	  0.102	 -0.341	  9.828	 -0.001	  0.005	  0.000	 25.800	 101.180	 -0.719
56876	  0.164	 -0.152	 -0.520	  0.117	 -0.340	  9.863	 -0.002	  0.004	  0.004	 25.800	 101.168	  0.310
56926	  0.162	 -0.147	 -0.524	  0.100	 -0.316	  9.874	 -0.002	  0.003	  0.005	 25.800	 101.180	 -0.719
56976	  0.162	 -0.146	 -0.523	  0.097	 -0.317	  9.868	 -0.001	 -0.000	  0.005	 25.800	 101.180	 -0.719
57026	  0.161	 -0.150	 -0.522	  0.147	 -0.294	  9.844	 -0.003	  0.001	  0.004	 25.800	 101.180	 -0.719
57076	  0.162	 -0.147	 -0.524	  0.110	 -0.342	  9.837	 -0.003	  0.001	  0.006	 25.800	 101.180	 -0.719
57126	  0.161	 -0.152	 -0.525	  0.144	 -0.325	  9.874	 -0.004	 -0.001	  0.007	 25.800	 101.168	  0.310
57176	  0.162	 -0.150	 -0.520	  0.160	 -0.332	  9.897	 -0.004	  0.002	  0.005	 25.800	 101.168	  0.310
57226	  0.161	 -0.153	 -0.527	  0.142	 -0.354	  9.886	 -0.003	  0.004	  0.003	 25.800	 101.164	  0.653
57276	  0.162	 -0.136	 -0.521	  0.199	 -0.305	  9.929	 -0.002	  0.004	  0.004	 25.800	 101.168	  0.310
57326	  0.162	 -0.151	 -0.524	  0.223	 -0.349	  9.916	 -0.002	  0.006	  0.004	 25.800	 101.184	 -1.062
57376	  0.162	 -0.148	 -0.523	  0.035	 -0.286	  9.891	 -0.005	  0.005	  0.011	 25.800	 101.168	  0.310
57426	  0.163	 -0.141	 -0.523	  0.198	 -0.381	  9.857	 -0.004	  0.004	  0.014	 25.800	 101.180	 -0.719
57476	  0.162	 -0.150	 -0.522	  0.038	 -0.334	  9.862	 -0.002	  0.003	  0.004	 25.800	 101.168	  0.310
57526	  0.162	 -0.153	 -0.523	  0.342	 -0.234	  9.863	 -0.002	  0.001	 -0.004	 25.800	 101.180	 -0.719
57576	  0.159	 -0.153	 -0.524	 -0.026	 -0.406	  9.802	 -0.004	 -0.000	  0.026	 25.800	 101.168	  0.310
57626	  0.163	 -0.149	 -0.522	  0.258	 -0.245	  9.867	 -0.002	 -0.003	  0.013	 25.800	 101.168	  0.310
57676	  0.161	 -0.144	 -0.524	  0.097	 -0.393	  9.898	  0.000	  0.002	 -0.001	 25.800	 101.168	  0.310
57726	  0.162	 -0.152	 -0.528	  0.284	 -0.332	  9.837	  0.000	  0.003	  0.028	 25.800	 101.157	  1.254
57776	  0.162	 -0.152	 -0.526	  0.195	 -0.290	  9.871	  0.000	  0.005	 -0.008	 25.800	 101.173	 -0.118
57826	  0.162	 -0.148	 -0.525	  0.122	 -0.387	  9.859	 -0.001	  0.006	  0.009	 25.800	 101.173	 -0.118
57876	  0.164	 -0.150	 -0.522	  0.175	 -0.207	  9.873	 -0.003	  0.006	  0.011	 25.800	 101.180	 -0.719
57926	  0.162	 -0.150	 -0.525	  0.085	 -0.314	  9.889	 -0.006	  0.006	 -0.003	 25.800	 101.180	 -0.719
57976	  0.163	 -0.148	 -0.525	  0.105	 -0.280	  9.881	 -0.006	  0.003	  0.003	 25.800	 101.168	  0.310
58026	  0.164	 -0.149	 -0.523	  0.094	 -0.383	  9.824	 -0.006	  0.002	  0.010	 25.800	 101.173	 -0.118
58077	  0.161	 -0.150	 -0.523	  0.128	 -0.319	  9.791	 -0.006	 -0.001	  0.001	 25.800	 101.173	 -0.118
58127	  0.163	 -0.152	 -0.526	  0.148	 -0.362	  9.837	 -0.003	 -0.001	 -0.000	 25.800	 101.168	  0.310
58177	  0.163	 -0.140	 -0.518	  0.086	 -0.376	  9.842	 -0.002	 -0.002	  0.010	 25.800	 101.180	 -0.719
58227	  0.163	 -0.147	 -0.521	  0.224	 -0.301	  9.913	  0.001	  0.001	  0.008	 25.800	 101.173	 -0.118
58277	  0.162	 -0.152	 -0.522	  0.136	 -0.324	  9.883	  0.001	  0.001	  0.003	 25.800	 101.157	  1.254
58327	  0.163	 -0.148	 -0.524	  0.171	 -0.280	  9.889	 -0.001	  0.004	  0.007	 25.800	 101.168	  0.310
58377	  0.162	 -0.150	 -0.518	  0.170	 -0.293	  9.872	 -0.002	  0.005	  0.003	 25.800	 101.168	  0.310
58427	  0.163	 -0.154	 -0.523	  0.158	 -0.289	  9.816	 -0.005	  0.006	  0.012	 25.800	 101.157	  1.254
58477	  0.162	 -0.146	 -0.522	  0.182	 -0.278	  9.885	 -0.007	  0.004	 -0.004	 25.800	 101.168	  0.310
58527	  0.162	 -0.151	 -0.524	  0.089	 -0.326	  9.922	 -0.006	  0.005	  0.002	 25.800	 101.168	  0.310
58577	  0.162	 -0.149	 -0.520	  0.190	 -0.383	  9.885	 -0.006	  0.001	  0.001	 25.800	 101.168	  0.310
58627	  0.164	 -0.142	 -0.522	  0.118	 -0.328	  9.836	 -0.003	  0.002	  0.002	 25.800	 101.184	 -1.062
58677	  0.162	 -0.150	 -0.524	  0.170	 -0.409	  9.884	 -0.003	  0.000	  0.004	 25.800	 101.168	  0.310
58727	  0.163	 -0.150	 -0.523	  0.123	 -0.305	  9.887	 -0.001	  0.002	  0.005	 25.800	 101.168	  0.310
58777	  0.162	 -0.147	 -0.520	  0.139	 -0.357	  9.904	  0.001	  0.002	  0.011	 25.800	 101.168	  0.310
58827	  0.162	 -0.147	 -0.526	  0.176	 -0.254	  9.862	 -0.001	  0.002	  0.005	 25.800	 101.184	 -1.062
58877	  0.160	 -0.151	 -0.520	  0.143	 -0.307	  9.845	 -0.002	  0.003	  0.003	 25.800	 101.173	 -0.118
58927	  0.163	 -0.150	 -0.522	  0.163	 -0.293	  9.865	 -0.006	  0.005	  0.003	 25.800	 101.168	  0.310
58977	  0.162	 -0.149	 -0.524	  0.117	 -0.306	  9.893	 -0.005	  0.006	  0.006	 25.800	 101.184	 -1.062
59027	  0.162	 -0.155	 -0.519	  0.138	 -0.327	  9.874	 -0.009	  0.004	  0.001	 25.800	 101.168	  0.310
59077	  0.162	 -0.148	 -0.523	  0.139	 -0.323	  9.846	 -0.006	  0.005	  0.003	 25.800	 101.173	 -0.118
59127	  0.161	 -0.153	 -0.530	  0.092	 -0.391	  9.867	 -0.005	  0.004	  0.000	 25.800	 101.168	  0.310
59177	  0.163	 -0.140	 -0.521	  0.120	 -0.313	  9.849	 -0.002	  0.001	  0.006	 25.800	 101.168	  0.310
59227	  0.162	 -0.145	 -0.521	  0.131	 -0.388	  9.889	 -0.000	  0.002	  0.004	 25.800	 101.168	  0.310
59277	  0.162	 -0.155	 -0.527	  0.140	 -0.293	  9.860	  0.000	 -0.000	  0.003	 25.800	 101.173	 -0.118
59327	  0.163	 -0.154	 -0.526	  0.152	 -0.338	  9.888	 -0.000	  0.002	  0.006	 25.800	 101.184	 -1.062
59377	  0.162	 -0.154	 -0.523	  0.138	 -0.276	  9.870	 -0.003	  0.002	  0.012	 25.800	 101.173	 -0.118
59427	  0.162	 -0.145	 -0.521	  0.198	 -0.266	  9.882	 -0.005	  0.004	  0.004	 25.800	 101.162	  0.824
59477	  0.162	 -0.145	 -0.520	  0.109	 -0.345	  9.886	 -0.006	  0.004	  0.004	 25.800	 101.173	 -0.118
59527	  0.162	 -0.155	 -0.528	  0.153	 -0.285	  9.888	 -0.008	  0.005	  0.008	 25.800	 101.184	 -1.062
59577	  0.162	 -0.153	 -0.526	  0.120	 -0.360	  9.874	 -0.007	  0.004	  0.000	 25.800	 101.162	  0.824
59627	  0.161	 -0.150	 -0.522	  0.148	 -0.357	  9.866	 -0.006	  0.003	  0.003	 25.800	 101.173	 -0.118
59677	  0.162	 -0.150	 -0.521	  0.109	 -0.383	  9.897	 -0.003	  0.004	 -0.002	 25.800	 101.168	  0.310
59727	  0.162	 -0.153	 -0.532	  0.091	 -0.347	  9.872	 -0.002	  0.001	  0.008	 25.800	 101.173	 -0.118
59777	  0.162	 -0.149	 -0.521	  0.138	 -0.343	  9.827	  0.000	  0.002	  0.005	 25.800	 101.184	 -1.062
59827	  0.162	 -0.151	 -0.522	  0.117	 -0.292	  9.846	  0.000	  0.002	  0.003	 25.800	 101.173	 -0.118
59877	  0.164	 -0.149	 -0.524	  0.192	 -0.302	  9.866	 -0.001	  0.002	  0.006	 25.800	 101.173	 -0.118
59927	  0.162	 -0.149	 -0.523	  0.126	 -0.263	  9.853	 -0.003	  0.003	  0.005	 25.800	 101.162	  0.824
59977	  0.161	 -0.153	 -0.522	  0.178	 -0.291	  9.846	 -0.005	  0.005	  0.005	 25.800	 101.168	  0.310
60027	  0.163	 -0.153	 -0.523	  0.124	 -0.312	  9.892	 -0.006	  0.003	  0.002	 25.800	 101.173	 -0.118
60077	  0.160	 -0.151	 -0.523	  0.144	 -0.340	  9.886	 -0.006	  0.004	  0.006	 25.800	 101.173	 -0.118
60127	  0.161	 -0.148	 -0.520	  0.117	 -0.362	  9.889	 -0.006	  0.003	  0.003	 25.800	 101.173	 -0.118
60177	  0.162	 -0.143	 -0.522	  0.127	 -0.338	  9.879	 -0.004	  0.003	  0.004	 25.800	 101.184	 -1.062
60227	  0.161	 -0.148	 -0.523	  0.137	 -0.372	  9.897	 -0.002	  0.004	  0.005	 25.800	 101.162	  0.824
60277	  0.162	 -0.150	 -0.522	  0.153	 -0.332	  9.884	 -0.002	  0.002	  0.005	 25.800	 101.162	  0.824
60327	  0.162	 -0.151	 -0.520	  0.142	 -0.334	  9.847	 -0.000	  0.004	  0.004	 25.800	 101.173	 -0.118
60377	  0.163	 -0.150	 -0.523	  0.160	 -0.289	  9.829	 -0.001	  0.002	  0.005	 25.800	 101.173	 -0.118
60427	  0.161	 -0.152	 -0.520	  0.133	 -0.314	  9.864	 -0.002	  0.003	  0.006	 25.800	 101.162	  0.824
60477	  0.162	 -0.152	 -0.521	  0.128	 -0.291	  9.845	 -0.004	  0.003	  0.005	 25.800	 101.173	 -0.118
60527	  0.162	 -0.153	 -0.523	  0.125	 -0.332	  9.891	 -0.004	  0.003	  0.004	 25.800	 101.173	 -0.118
60577	  0.162	 -0.151	 -0.522	  0.190	 -0.333	  9.867	 -0.005	  0.003	  0.005	 25.800	 101.177	 -0.462
60627	  0.162	 -0.149	 -0.520	  0.139	 -0.356	  9.900	 -0.005	  0.004	  0.006	 25.800	 101.162	  0.824
60677	  0.161	 -0.154	 -0.521	  0.139	 -0.319	  9.850	 -0.004	  0.002	  0.003	 25.800	 101.173	 -0.118
60727	  0.160	 -0.149	 -0.523	  0.123	 -0.356	  9.877	 -0.002	  0.002	  0.002	 25.800	 101.184	 -1.062
60777	  0.161	 -0.149	 -0.526	  0.119	 -0.359	  9.890	 -0.002	  0.003	  0.003	 25.800	 101.173	 -0.118
60827	  0.160	 -0.151	 -0.523	  0.149	 -0.303	  9.840	 -0.002	  0.002	  0.005	 25.800	 101.162	  0.824
60877	  0.162	 -0.154	 -0.529	  0.152	 -0.319	  9.864	 -0.001	  0.002	  0.004	 25.800	 101.162	  0.824
60927	  0.163	 -0.152	 -0.526	  0.120	 -0.277	  9.892	 -0.002	  0.001	  0.003	 25.800	 101.177	 -0.462
60977	  0.162	 -0.153	 -0.520	  0.146	 -0.307	  9.881	 -0.004	  0.001	  0.006	 25.800	 101.177	 -0.462
61027	  0.162	 -0.153	 -0.526	  0.165	 -0.301	  9.902	 -0.006	  0.001	  0.005	 25.800	 101.184	 -1.062
61077	  0.162	 -0.142	 -0.523	  0.134	 -0.325	  9.858	 -0.005	  0.002	  0.004	 25.800	 101.173	 -0.118
61127	  0.164	 -0.150	 -0.519	  0.164	 -0.348	  9.882	 -0.006	  0.003	  0.006	 25.800	 101.173	 -0.118
61177	  0.161	 -0.150	 -0.525	  0.158	 -0.359	  9.877	 -0.005	  0.003	  0.005	 25.800	 101.173	 -0.118
61227	  0.162	 -0.153	 -0.526	  0.166	 -0.363	  9.874	 -0.004	  0.003	  0.003	 25.800	 101.155	  1.426
61277	  0.160	 -0.152	 -0.526	  0.140	 -0.366	  9.912	 -0.001	  0.004	  0.001	 25.800	 101.173	 -0.118
61327	  0.163	 -0.153	 -0.523	  0.148	 -0.322	  9.872	  0.000	  0.004	  0.008	 25.800	 101.166	  0.482
61377	  0.161	 -0.151	 -0.523	  0.128	 -0.338	  9.860	 -0.001	  0.003	  0.003	 25.800	 101.177	 -0.462
61427	  0.161	 -0.147	 -0.529	  0.106	 -0.250	  9.906	  0.000	  0.003	  0.005	 25.800	 101.177	 -0.462
61477	  0.162	 -0.141	 -0.522	  0.155	 -0.318	  9.912	 -0.002	  0.002	  0.007	 25.800	 101.177	 -0.462
61527	  0.161	 -0.153	 -0.530	  0.137	 -0.260	  9.875	 -0.005	  0.003	  0.004	 25.800	 101.173	 -0.118
61577	  0.161	 -0.153	 -0.525	  0.192	 -0.358	  9.862	 -0.006	  0.003	  0.008	 25.800	 101.173	 -0.118
61627	  0.162	 -0.150	 -0.527	  0.160	 -0.299	  9.914	 -0.008	  0.005	  0.003	 25.800	 101.166	  0.482
61677	  0.161	 -0.152	 -0.530	  0.219	 -0.285	  9.996	 -0.007	  0.006	  0.010	 25.800	 101.162	  0.824
61727	  0.162	 -0.150	 -0.523	  0.303	 -0.305	  9.887	 -0.006	  0.010	  0.006	 25.800	 101.162	  0.824
61777	  0.162	 -0.152	 -0.527	  0.001	 -0.387	  9.713	 -0.008	  0.013	 -0.001	 25.800	 101.162	  0.824
61827	  0.162	 -0.148	 -0.521	  0.385	 -0.356	  9.803	 -0.009	  0.017	  0.016	 25.800	 101.162	  0.824
61877	  0.163	 -0.142	 -0.522	 -0.033	 -0.263	  9.946	 -0.010	  0.016	 -0.019	 25.800	 101.177	 -0.462
61927	  0.162	 -0.151	 -0.521	 -0.021	 -0.397	  9.893	 -0.007	  0.012	 -0.004	 25.800	 101.177	 -0.462
61977	  0.164	 -0.150	 -0.519	  0.055	 -0.367	  9.848	 -0.003	  0.005	 -0.005	 25.800	 101.166	  0.482
62027	  0.163	 -0.148	 -0.526	 -0.058	 -0.365	  9.876	 -0.000	 -0.002	 -0.000	 25.800	 101.177	 -0.462
62077	  0.165	 -0.140	 -0.522	  0.057	 -0.364	  9.888	  0.000	 -0.007	  0.008	 25.800	 101.188	 -1.406
62127	  0.164	 -0.151	 -0.519	  0.099	 -0.320	  9.867	  0.000	 -0.007	  0.020	 25.800	 101.162	  0.824
62177	  0.164	 -0.150	 -0.522	  0.106	 -0.309	  9.810	  0.001	 -0.009	  0.022	 25.800	 101.166	  0.482
62227	  0.162	 -0.149	 -0.526	  0.274	 -0.302	  9.924	 -0.001	 -0.004	  0.037	 25.800	 101.177	 -0.462
62277	  0.163	 -0.148	 -0.522	  0.248	 -0.278	  9.860	 -0.004	 -0.001	  0.001	 25.800	 101.166	  0.482
62326	  0.163	 -0.152	 -0.525	  0.230	 -0.345	  9.909	 -0.005	  0.008	 -0.002	 25.800	 101.166	  0.482
62377	  0.162	 -0.149	 -0.522	  0.175	 -0.377	  9.828	 -0.010	  0.011	  0.005	 25.800	 101.188	 -1.406
62426	  0.162	 -0.150	 -0.521	  0.207	 -0.279	  9.839	 -0.008	  0.015	 -0.002	 25.800	 101.177	 -0.462
62476	  0.163	 -0.149	 -0.525	  0.015	 -0.348	  9.875	 -0.006	  0.009	 -0.031	 25.800	 101.166	  0.482
62526	  0.162	 -0.138	 -0.520	 -0.006	 -0.361	  9.859	 -0.005	  0.009	 -0.010	 25.800	 101.166	  0.482
62576	  0.163	 -0.148	 -0.522	  0.015	 -0.396	  9.886	 -0.000	  0.003	 -0.003	 25.800	 101.177	 -0.462
62626	  0.163	 -0.142	 -0.520	  0.028	 -0.379	  9.850	 -0.002	  0.000	  0.018	 25.800	 101.155	  1.426
62676	  0.162	 -0.145	 -0.521	  0.064	 -0.324	  9.897	  0.001	 -0.005	  0.002	 25.800	 101.166	  0.482
62726	  0.162	 -0.147	 -0.520	  0.038	 -0.319	  9.927	  0.001	 -0.009	  0.015	 25.800	 101.177	 -0.462
62776	  0.161	 -0.151	 -0.527	  0.158	 -0.353	  9.842	  0.000	 -0.008	  0.029	 25.800	 101.177	 -0.462
62826	  0.162	 -0.153	 -0.528	  0.199	 -0.238	  9.851	 -0.002	 -0.004	  0.014	 25.800	 101.177	 -0.462
62876	  0.161	 -0.150	 -0.526	  0.288	 -0.320	  9.860	 -0.004	  0.001	  0.001	 25.800	 101.177	 -0.462
62926	  0.163	 -0.143	 -0.522	  0.187	 -0.305	  9.906	 -0.004	  0.007	 -0.000	 25.800	 101.166	  0.482
62976	  0.162	 -0.148	 -0.527	  0.163	 -0.366	  9.900	 -0.004	  0.009	  0.008	 25.800	 101.166	  0.482
63026	  0.162	 -0.149	 -0.522	  0.146	 -0.242	  9.795	 -0.007	  0.008	 -0.000	 25.800	 101.162	  0.824
63076	  0.160	 -0.150	 -0.522	  0.098	 -0.369	  9.879	 -0.005	  0.009	 -0.015	 25.800	 101.177	 -0.462
63126	  0.163	 -0.152	 -0.521	  0.005	 -0.334	  9.900	 -0.006	  0.006	 -0.001	 25.800	 101.166	  0.482
63176	  0.162	 -0.151	 -0.530	  0.055	 -0.363	  9.865	 -0.004	  0.002	  0.008	 25.800	 101.177	 -0.462
63226	  0.164	 -0.145	 -0.522	  0.096	 -0.326	  9.844	 -0.003	 -0.001	  0.003	 25.800	 101.177	 -0.462
63276	  0.162	 -0.153	 -0.524	  0.138	 -0.376	  9.909	 -0.003	 -0.002	  0.005	 25.800	 101.177	 -0.462
63326	  0.163	 -0.148	 -0.523	  0.072	 -0.300	  9.890	 -0.003	 -0.004	  0.005	 25.800	 101.177	 -0.462
63377	  0.162	 -0.148	 -0.523	  0.210	 -0.335	  9.911	 -0.002	 -0.002	  0.023	 25.800	 101.166	  0.482
63426	  0.162	 -0.148	 -0.522	  0.228	 -0.298	  9.884	 -0.004	  0.002	  0.006	 25.800	 101.177	 -0.462
63477	  0.162	 -0.153	 -0.523	  0.212	 -0.336	  9.875	 -0.003	  0.006	  0.004	 25.800	 101.166	  0.482
63526	  0.159	 -0.143	 -0.523	  0.152	 -0.328	  9.887	 -0.003	  0.008	 -0.002	 25.800	 101.166	  0.482
63577	  0.162	 -0.151	 -0.520	  0.184	 -0.326	  9.899	 -0.004	  0.010	  0.006	 25.800	 101.155	  1.426
63626	  0.162	 -0.148	 -0.527	  0.087	 -0.310	  9.872	 -0.005	  0.009	 -0.001	 25.800	 101.181	 -0.805
63677	  0.162	 -0.149	 -0.528	  0.082	 -0.303	  9.873	 -0.003	  0.007	 -0.003	 25.800	 101.166	  0.482
63726	  0.165	 -0.148	 -0.525	 -0.001	 -0.362	  9.878	 -0.005	  0.002	 -0.002	 25.800	 101.166	  0.482
63777	  0.164	 -0.139	 -0.523	  0.095	 -0.346	  9.855	 -0.005	 -0.001	  0.014	 25.800	 101.177	 -0.462
63827	  0.163	 -0.150	 -0.522	  0.141	 -0.343	  9.884	 -0.003	 -0.001	  0.003	 25.800	 101.177	 -0.462
63877	  0.164	 -0.147	 -0.522	  0.075	 -0.344	  9.846	 -0.003	 -0.003	  0.002	 25.800	 101.166	  0.482
63927	  0.166	 -0.152	 -0.519	  0.200	 -0.396	  9.869	 -0.002	 -0.002	  0.013	 25.800	 101.166	  0.482
63977	  0.162	 -0.148	 -0.523	  0.174	 -0.267	  9.861	 -0.003	  0.004	  0.003	 25.800	 101.166	  0.482
64027	  0.165	 -0.147	 -0.518	  0.148	 -0.365	  9.908	 -0.001	  0.006	  0.006	 25.800	 101.170	  0.139
64077	  0.165	 -0.150	 -0.528	  0.156	 -0.273	  9.921	 -0.002	  0.008	 -0.003	 25.800	 101.166	  0.482
64127	  0.164	 -0.142	 -0.523	  0.094	 -0.370	  9.884	 -0.004	  0.009	  0.012	 25.800	 101.181	 -0.805
64177	  0.163	 -0.152	 -0.526	  0.131	 -0.253	  9.857	 -0.006	  0.008	 -0.005	 25.800	 101.166	  0.482
64227	  0.162	 -0.149	 -0.525	  0.064	 -0.410	  9.880	 -0.004	  0.005	  0.006	 25.800	 101.177	 -0.462
64277	  0.162	 -0.148	 -0.524	  0.062	 -0.309	  9.859	 -0.004	  0.003	  0.008	 25.800	 101.155	  1.426
64327	  0.165	 -0.153	 -0.530	  0.058	 -0.372	  9.914	 -0.001	  0.000	  0.010	 25.800	 101.166	  0.482
64377	  0.162	 -0.145	 -0.522	  0.173	 -0.324	  9.822	 -0.002	 -0.001	  0.003	 25.800	 101.166	  0.482
64427	  0.163	 -0.149	 -0.526	  0.108	 -0.388	  9.888	 -0.001	 -0.003	  0.003	 25.800	 101.177	 -0.462
64477	  0.163	 -0.148	 -0.521	  0.183	 -0.324	  9.866	 -0.001	 -0.002	  0.011	 25.800	 101.177	 -0.462
64527	  0.162	 -0.149	 -0.524	  0.173	 -0.355	  9.883	 -0.002	  0.002	  0.003	 25.800	 101.181	 -0.805
64577	  0.163	 -0.153	 -0.522	  0.144	 -0.241	  9.898	 -0.003	  0.002	  0.002	 25.800	 101.166	  0.482
64627	  0.163	 -0.149	 -0.520	  0.206	 -0.382	  9.931	 -0.004	  0.004	  0.005	 25.800	 101.181	 -0.805
64677	  0.161	 -0.148	 -0.523	  0.086	 -0.295	  9.842	 -0.004	  0.006	  0.006	 25.800	 101.181	 -0.805
64727	  0.164	 -0.145	 -0.523	  0.169	 -0.349	  9.845	 -0.005	  0.005	  0.004	 25.800	 101.181	 -0.805
64777	  0.163	 -0.143	 -0.523	  0.087	 -0.344	  9.872	 -0.004	  0.005	 -0.004	 25.800	 101.166	  0.482
64827	  0.164	 -0.150	 -0.530	  0.074	 -0.374	  9.894	 -0.004	  0.001	  0.008	 25.800	 101.170	  0.139
64877	  0.162	 -0.150	 -0.524	  0.105	 -0.337	  9.881	 -0.002	  0.001	 -0.000	 25.800	 101.170	  0.139
64927	  0.162	 -0.151	 -0.530	  0.139	 -0.385	  9.886	 -0.001	  0.001	  0.009	 25.800	 101.181	 -0.805
64977	  0.164	 -0.152	 -0.528	  0.101	 -0.297	  9.878	 -0.001	 -0.001	  0.005	 25.800	 101.181	 -0.805
65027	  0.164	 -0.147	 -0.520	  0.145	 -0.328	  9.917	 -0.001	 -0.002	  0.009	 25.800	 101.181	 -0.805
65077	  0.162	 -0.142	 -0.523	  0.190	 -0.293	  9.857	 -0.003	  0.001	  0.012	 25.800	 101.170	  0.139
65127	  0.162	 -0.148	 -0.524	  0.182	 -0.308	  9.869	 -0.003	  0.003	  0.003	 25.800	 101.170	  0.139
65177	  0.163	 -0.142	 -0.523	  0.155	 -0.345	  9.838	 -0.005	  0.003	  0.001	 25.800	 101.177	 -0.462
65227	  0.164	 -0.153	 -0.522	  0.145	 -0.308	  9.873	 -0.005	  0.006	  0.007	 25.800	 101.170	  0.139
65277	  0.162	 -0.150	 -0.526	  0.146	 -0.317	  9.882	 -0.005	  0.006	  0.008	 25.800	 101.177	 -0.462
65327	  0.162	 -0.149	 -0.520	  0.112	 -0.334	  9.871	 -0.005	  0.005	 -0.000	 25.800	 101.170	  0.139
65377	  0.162	 -0.151	 -0.524	  0.112	 -0.379	  9.851	 -0.004	  0.004	  0.001	 25.800	 101.170	  0.139
65427	  0.163	 -0.144	 -0.522	  0.103	 -0.359	  9.849	 -0.003	  0.003	  0.009	 25.800	 101.170	  0.139
65477	  0.164	 -0.150	 -0.523	  0.106	 -0.351	  9.886	 -0.003	  0.002	  0.006	 25.800	 101.181	 -0.805
65527	  0.163	 -0.151	 -0.522	  0.124	 -0.309	  9.875	 -0.003	  0.000	  0.002	 25.800	 101.166	  0.482
65577	  0.162	 -0.155	 -0.526	  0.132	 -0.338	  9.898	 -0.002	  0.000	  0.009	 25.800	 101.181	 -0.805
65627	  0.163	 -0.149	 -0.530	  0.204	 -0.319	  9.872	 -0.002	  0.001	  0.004	 25.800	 101.170	  0.139
65677	  0.162	 -0.149	 -0.527	  0.082	 -0.298	  9.825	 -0.001	  0.002	  0.005	 25.800	 101.170	  0.139
65727	  0.162	 -0.146	 -0.530	  0.205	 -0.334	  9.845	 -0.004	  0.003	  0.002	 25.800	 101.170	  0.139
65777	  0.163	 -0.143	 -0.521	  0.098	 -0.315	  9.879	 -0.005	  0.004	  0.007	 25.800	 101.181	 -0.805
65827	  0.163	 -0.149	 -0.532	  0.176	 -0.353	  9.884	 -0.004	  0.005	  0.006	 25.800	 101.166	  0.482
65877	  0.163	 -0.155	 -0.522	  0.118	 -0.323	  9.875	 -0.004	  0.005	 -0.000	 25.800	 101.170	  0.139
65927	  0.162	 -0.150	 -0.525	  0.093	 -0.398	  9.886	 -0.003	  0.004	  0.011	 25.800	 101.170	  0.139
65977	  0.161	 -0.147	 -0.524	  0.126	 -0.315	  9.854	 -0.004	  0.002	  0.002	 25.800	 101.170	  0.139
66027	  0.162	 -0.147	 -0.523	  0.112	 -0.336	  9.824	 -0.001	  0.000	  0.004	 25.800	 101.175	 -0.291
66077	  0.164	 -0.146	 -0.522	  0.128	 -0.344	  9.886	 -0.002	  0.000	  0.001	 25.800	 101.170	  0.139
66127	  0.164	 -0.149	 -0.524	  0.127	 -0.260	  9.860	 -0.001	  0.000	  0.011	 25.800	 101.170	  0.139
66177	  0.162	 -0.147	 -0.524	  0.123	 -0.334	  9.900	 -0.004	  0.001	  0.005	 25.800	 101.170	  0.139
66227	  0.162	 -0.151	 -0.526	  0.193	 -0.255	  9.858	 -0.003	  0.003	  0.001	 25.800	 101.170	  0.139
66277	  0.162	 -0.148	 -0.523	  0.097	 -0.422	  9.901	 -0.005	  0.002	  0.005	 25.800	 101.170	  0.139
66327	  0.162	 -0.150	 -0.524	  0.179	 -0.276	  9.878	 -0.005	  0.003	  0.010	 25.800	 101.170	  0.139
66377	  0.162	 -0.147	 -0.526	  0.111	 -0.353	  9.899	 -0.004	  0.005	  0.002	 25.800	 101.170	  0.139
66427	  0.162	 -0.153	 -0.524	  0.145	 -0.304	  9.873	 -0.004	  0.006	  0.006	 25.800	 101.170	  0.139
66477	  0.164	 -0.150	 -0.523	  0.148	 -0.398	  9.850	 -0.005	  0.005	  0.000	 25.800	 101.170	  0.139
66527	  0.163	 -0.149	 -0.522	  0.042	 -0.304	  9.878	 -0.004	  0.002	  0.010	 25.800	 101.163	  0.739
66577	  0.163	 -0.145	 -0.521	  0.177	 -0.380	  9.854	 -0.003	  0.003	  0.006	 25.800	 101.170	  0.139
66627	  0.162	 -0.146	 -0.520	  0.064	 -0.308	  9.815	 -0.002	  0.002	  0.002	 25.800	 101.170	  0.139
66677	  0.163	 -0.150	 -0.531	  0.176	 -0.321	  9.871	 -0.000	  0.001	  0.003	 25.800	 101.175	 -0.291
66727	  0.162	 -0.150	 -0.522	  0.050	 -0.349	  9.883	 -0.003	  0.003	 -0.001	 25.800	 101.170	  0.139
66777	  0.163	 -0.153	 -0.530	  0.187	 -0.295	  9.869	 -0.005	  0.004	  0.011	 25.800	 101.159	  1.083
66827	  0.163	 -0.150	 -0.524	  0.091	 -0.308	  9.905	 -0.004	  0.002	  0.002	 25.800	 101.175	 -0.291
66877	  0.162	 -0.149	 -0.526	  0.170	 -0.305	  9.915	 -0.005	  0.004	  0.010	 25.800	 101.170	  0.139
66927	  0.162	 -0.150	 -0.523	  0.125	 -0.375	  9.857	 -0.005	  0.004	  0.005	 25.800	 101.175	 -0.291
66977	  0.162	 -0.150	 -0.522	  0.134	 -0.304	  9.839	 -0.004	  0.006	  0.006	 25.800	 101.175	 -0.291
67027	  0.162	 -0.141	 -0.524	  0.064	 -0.409	  9.853	 -0.004	  0.003	  0.001	 25.800	 101.163	  0.739
67077	  0.164	 -0.153	 -0.529	  0.132	 -0.297	  9.899	 -0.001	  0.002	  0.006	 25.800	 101.159	  1.083
67127	  0.163	 -0.154	 -0.526	  0.126	 -0.358	  9.909	 -0.001	  0.002	  0.006	 25.800	 101.170	  0.139
67177	  0.163	 -0.153	 -0.522	  0.167	 -0.308	  9.877	 -0.004	  0.001	 -0.003	 25.800	 101.159	  1.083
67227	  0.162	 -0.149	 -0.523	  0.087	 -0.352	  9.853	 -0.003	  0.001	  0.008	 25.800	 101.181	 -0.805
67277	  0.164	 -0.138	 -0.521	  0.182	 -0.325	  9.884	 -0.003	  0.002	  0.004	 25.800	 101.170	  0.139
67327	  0.163	 -0.152	 -0.524	  0.120	 -0.322	  9.841	 -0.002	  0.004	  0.006	 25.800	 101.170	  0.139
67377	  0.162	 -0.148	 -0.523	  0.139	 -0.339	  9.893	 -0.005	  0.004	  0.004	 25.800	 101.170	  0.139
67427	  0.162	 -0.148	 -0.525	  0.165	 -0.336	  9.837	 -0.004	  0.006	  0.006	 25.800	 101.186	 -1.233
67477	  0.164	 -0.146	 -0.521	  0.089	 -0.420	  9.894	 -0.004	  0.003	  0.006	 25.800	 101.159	  1.083
67527	  0.163	 -0.144	 -0.523	  0.178	 -0.189	  9.888	  0.000	  0.005	  0.002	 25.800	 101.181	 -0.805
67577	  0.164	 -0.147	 -0.522	  0.039	 -0.497	  9.919	 -0.004	  0.002	  0.002	 25.800	 101.159	  1.083
67627	  0.163	 -0.147	 -0.520	  0.177	 -0.153	  9.873	 -0.003	  0.003	  0.010	 25.800	 101.175	 -0.291
67677	  0.162	 -0.146	 -0.526	  0.010	 -0.435	  9.872	 -0.003	  0.002	 -0.000	 25.800	 101.175	 -0.291
67727	  0.162	 -0.152	 -0.527	  0.293	 -0.211	  9.954	 -0.004	  0.002	  0.008	 25.800	 101.170	  0.139
67777	  0.164	 -0.152	 -0.524	 -0.075	 -0.371	 10.028	 -0.006	  0.002	 -0.006	 25.800	 101.163	  0.739
67827	  0.162	 -0.152	 -0.522	  0.241	 -0.190	  9.940	 -0.003	  0.001	  0.017	 25.800	 101.175	 -0.291
67877	  0.162	 -0.142	 -0.520	  0.068	 -0.481	  9.896	 -0.006	  0.004	 -0.001	 25.800	 101.170	  0.139
67927	  0.163	 -0.147	 -0.520	  0.206	 -0.247	  9.756	 -0.003	  0.003	  0.008	 25.800	 101.163	  0.739
67977	  0.162	 -0.150	 -0.523	  0.145	 -0.505	  9.830	 -0.003	  0.002	 -0.004	 25.800	 101.163	  0.739
68026	  0.163	 -0.150	 -0.523	  0.105	 -0.272	  9.824	 -0.004	  0.004	  0.013	 25.800	 101.170	  0.139
68076	  0.162	 -0.149	 -0.523	  0.116	 -0.395	  9.993	 -0.002	  0.004	  0.003	 25.800	 101.175	 -0.291
68126	  0.164	 -0.153	 -0.521	  0.071	 -0.180	  9.938	 -0.001	  0.003	  0.000	 25.800	 101.163	  0.739
68176	  0.162	 -0.151	 -0.525	  0.191	 -0.452	  9.910	 -0.002	  0.002	  0.010	 25.800	 101.175	 -0.291
68226	  0.162	 -0.149	 -0.524	  0.068	 -0.187	  9.849	 -0.004	  0.003	  0.000	 25.800	 101.175	 -0.291
68276	  0.161	 -0.149	 -0.521	  0.166	 -0.407	  9.908	 -0.003	  0.003	  0.010	 25.800	 101.175	 -0.291
68326	  0.163	 -0.146	 -0.525	 -0.026	 -0.111	  9.990	 -0.005	  0.000	 -0.017	 25.800	 101.175	 -0.291
68376	  0.164	 -0.153	 -0.523	  0.283	 -0.422	  9.929	 -0.004	  0.004	  0.027	 25.800	 101.175	 -0.291
68426	  0.163	 -0.152	 -0.527	  0.085	 -0.392	  9.844	 -0.007	  0.001	 -0.004	 25.800	 101.170	  0.139
68476	  0.163	 -0.153	 -0.523	  0.177	 -0.192	  9.839	 -0.001	  0.004	  0.008	 25.800	 101.175	 -0.291
68526	  0.166	 -0.150	 -0.522	  0.124	 -0.597	  9.912	 -0.003	  0.003	 -0.005	 25.800	 101.175	 -0.291
68576	  0.163	 -0.149	 -0.523	  0.063	  0.071	  9.814	  0.000	  0.004	 -0.000	 25.800	 101.163	  0.739
68626	  0.162	 -0.149	 -0.523	  0.292	 -0.782	  9.834	 -0.003	  0.004	  0.015	 25.800	 101.186	 -1.233
68676	  0.164	 -0.151	 -0.521	  0.073	 -0.024	  9.726	 -0.004	  0.003	 -0.002	 25.800	 101.175	 -0.291
68726	  0.162	 -0.151	 -0.524	  0.155	 -0.608	 10.001	 -0.003	  0.003	  0.016	 25.800	 101.175	 -0.291
68776	  0.164	 -0.151	 -0.527	  0.090	 -0.041	  9.818	 -0.006	  0.004	 -0.009	 25.800	 101.175	 -0.291
68826	  0.163	 -0.142	 -0.525	  0.066	 -0.571	  9.988	 -0.004	  0.001	  0.019	 25.800	 101.170	  0.139
68876	  0.162	 -0.152	 -0.525	 -0.089	  0.024	  9.917	 -0.005	  0.003	 -0.019	 25.800	 101.175	 -0.291
68926	  0.163	 -0.152	 -0.531	  0.247	 -0.667	  9.863	 -0.002	  0.006	  0.025	 25.800	 101.163	  0.739
68976	  0.162	 -0.146	 -0.524	  0.051	 -0.148	  9.691	 -0.006	  0.004	 -0.010	 25.800	 101.170	  0.139
69026	  0.162	 -0.149	 -0.524	  0.183	 -0.474	  9.836	  0.000	  0.005	  0.018	 25.800	 101.163	  0.739
69076	  0.162	 -0.151	 -0.523	  0.089	 -0.358	  9.872	 -0.004	  0.002	 -0.009	 25.800	 101.170	  0.139
69126	  0.162	 -0.146	 -0.521	  0.111	 -0.274	  9.900	 -0.002	  0.003	  0.021	 25.800	 101.163	  0.739
69176	  0.162	 -0.153	 -0.526	  0.137	 -0.416	  9.868	 -0.004	  0.001	 -0.016	 25.800	 101.175	 -0.291
69227	  0.162	 -0.154	 -0.524	  0.114	 -0.139	  9.860	 -0.003	  0.001	  0.014	 25.800	 101.175	 -0.291
69276	  0.162	 -0.151	 -0.527	  0.213	 -0.539	  9.907	 -0.007	  0.002	  0.010	 25.800	 101.175	 -0.291
69327	  0.164	 -0.148	 -0.520	  0.031	 -0.132	  9.809	 -0.006	  0.002	  0.004	 25.800	 101.186	 -1.233
69376	  0.162	 -0.149	 -0.525	  0.136	 -0.475	  9.720	 -0.003	  0.002	 -0.007	 25.800	 101.163	  0.739
69427	  0.162	 -0.147	 -0.525	  0.045	 -0.179	  9.823	 -0.003	  0.003	 -0.005	 25.800	 101.179	 -0.633
69476	  0.162	 -0.148	 -0.531	  0.207	 -0.471	  9.947	 -0.003	  0.003	  0.023	 25.800	 101.163	  0.739
69527	  0.165	 -0.148	 -0.522	  0.125	 -0.221	  9.910	 -0.003	  0.004	 -0.008	 25.800	 101.175	 -0.291
69577	  0.162	 -0.151	 -0.527	  0.116	 -0.421	  9.911	 -0.001	  0.004	  0.007	 25.800	 101.159	  1.083
69626	  0.163	 -0.148	 -0.522	  0.203	 -0.292	  9.888	 -0.003	  0.004	 -0.001	 25.800	 101.175	 -0.291
69676	  0.163	 -0.152	 -0.528	  0.043	 -0.298	  9.833	 -0.002	  0.004	  0.015	 25.800	 101.163	  0.739
69727	  0.163	 -0.154	 -0.524	  0.179	 -0.321	  9.860	 -0.003	  0.003	 -0.002	 25.800	 101.179	 -0.633
69777	  0.163	 -0.151	 -0.527	  0.076	 -0.307	  9.825	 -0.004	  0.002	  0.006	 25.800	 101.175	 -0.291
69827	  0.162	 -0.139	 -0.521	  0.149	 -0.406	  9.869	 -0.005	  0.002	  0.009	 25.800	 101.175	 -0.291
69877	  0.162	 -0.147	 -0.522	  0.096	 -0.246	  9.895	 -0.004	  0.001	  0.004	 25.800	 101.175	 -0.291
69927	  0.163	 -0.148	 -0.528	  0.149	 -0.404	  9.883	 -0.004	  0.000	  0.005	 25.800	 101.163	  0.739
69977	  0.163	 -0.147	 -0.523	  0.157	 -0.296	  9.871	 -0.002	  0.003	  0.000	 25.800	 101.168	  0.310
70027	  0.164	 -0.148	 -0.526	  0.088	 -0.409	  9.893	 -0.001	  0.004	  0.012	 25.800	 101.168	  0.310
70077	  0.163	 -0.145	 -0.520	  0.182	 -0.275	  9.849	 -0.002	  0.004	 -0.001	 25.800	 101.179	 -0.633
70127	  0.162	 -0.148	 -0.527	  0.085	 -0.348	  9.901	 -0.002	  0.005	  0.004	 25.800	 101.175	 -0.291
70177	  0.162	 -0.156	 -0.524	  0.171	 -0.335	  9.877	 -0.005	  0.005	  0.004	 25.800	 101.163	  0.739
70227	  0.162	 -0.149	 -0.521	  0.080	 -0.297	  9.857	 -0.004	  0.005	  0.008	 25.800	 101.168	  0.310
70277	  0.163	 -0.152	 -0.525	  0.144	 -0.323	  9.865	 -0.006	  0.002	  0.004	 25.800	 101.168	  0.310
70327	  0.163	 -0.153	 -0.523	  0.107	 -0.284	  9.892	 -0.005	  0.004	 -0.001	 25.800	 101.175	 -0.291
70377	  0.162	 -0.151	 -0.523	  0.090	 -0.391	  9.910	 -0.005	  0.002	  0.008	 25.800	 101.175	 -0.291
70427	  0.162	 -0.150	 -0.524	  0.147	 -0.302	  9.886	 -0.005	  0.003	  0.005	 25.800	 101.168	  0.310
70477	  0.163	 -0.142	 -0.522	  0.143	 -0.373	  9.863	 -0.002	  0.003	  0.005	 25.800	 101.168	  0.310
70527	  0.163	 -0.144	 -0.522	  0.135	 -0.315	  9.885	 -0.002	  0.002	 -0.000	 25.800	 101.179	 -0.633
70577	  0.162	 -0.149	 -0.522	  0.117	 -0.374	  9.859	 -0.002	  0.003	  0.007	 25.800	 101.163	  0.739
70627	  0.162	 -0.153	 -0.522	  0.169	 -0.311	  9.887	 -0.002	  0.003	  0.002	 25.800	 101.179	 -0.633
70677	  0.161	 -0.141	 -0.523	  0.085	 -0.337	  9.879	 -0.002	  0.004	  0.006	 25.800	 101.175	 -0.291
70728	  0.162	 -0.143	 -0.520	  0.150	 -0.327	  9.878	 -0.004	  0.003	  0.004	 25.800	 101.168	  0.310
70777	  0.160	 -0.147	 -0.523	  0.110	 -0.314	  9.853	 -0.004	  0.004	  0.003	 25.800	 101.168	  0.310
70827	  0.163	 -0.147	 -0.521	  0.128	 -0.368	  9.904	 -0.004	  0.002	  0.006	 25.800	 101.179	 -0.633
70877	  0.163	 -0.147	 -0.524	  0.124	 -0.319	  9.873	 -0.002	  0.001	  0.004	 25.800	 101.175	 -0.291
70927	  0.161	 -0.138	 -0.522	  0.091	 -0.400	  9.873	 -0.002	  0.001	  0.006	 25.800	 101.179	 -0.633
70977	  0.163	 -0.148	 -0.526	  0.159	 -0.292	  9.865	 -0.001	  0.001	  0.006	 25.800	 101.168	  0.310
71027	  0.163	 -0.140	 -0.523	  0.095	 -0.365	  9.889	 -0.001	  0.000	  0.005	 25.800	 101.168	  0.310
71077	  0.163	 -0.143	 -0.518	  0.160	 -0.269	  9.815	 -0.001	  0.001	  0.002	 25.800	 101.175	 -0.291
71127	  0.160	 -0.143	 -0.524	  0.128	 -0.321	  9.866	 -0.003	  0.003	  0.007	 25.800	 101.179	 -0.633
71177	  0.160	 -0.149	 -0.520	  0.174	 -0.300	  9.821	 -0.005	  0.003	  0.003	 25.800	 101.168	  0.310
71227	  0.163	 -0.152	 -0.522	  0.107	 -0.325	  9.924	 -0.006	  0.006	  0.006	 25.800	 101.168	  0.310
71277	  0.162	 -0.152	 -0.526	  0.124	 -0.338	  9.958	 -0.006	  0.005	  0.005	 25.800	 101.163	  0.739
71327	  0.164	 -0.147	 -0.522	  0.101	 -0.364	  9.910	 -0.005	  0.005	  0.002	 25.900	 101.183	 -0.976
71377	  0.162	 -0.148	 -0.523	  0.112	 -0.370	  9.849	 -0.005	  0.003	  0.003	 25.800	 101.179	 -0.633
71427	  0.162	 -0.151	 -0.526	  0.121	 -0.348	  9.871	 -0.002	  0.001	  0.003	 25.800	 101.168	  0.310
71477	  0.162	 -0.149	 -0.524	  0.089	 -0.350	  9.872	 -0.001	  0.003	  0.005	 25.800	 101.168	  0.310
71527	  0.161	 -0.150	 -0.523	  0.103	 -0.306	  9.902	 -0.001	  0.001	  0.005	 25.800	 101.168	  0.310
71577	  0.162	 -0.148	 -0.523	  0.117	 -0.337	  9.868	 -0.001	  0.002	  0.005	 25.800	 101.168	  0.310
71627	  0.161	 -0.142	 -0.525	  0.159	 -0.307	  9.857	 -0.003	  0.001	  0.006	 25.900	 101.157	  1.254
71677	  0.162	 -0.149	 -0.524	  0.144	 -0.307	  9.869	 -0.005	  0.001	  0.005	 25.800	 101.179	 -0.633
71727	  0.165	 -0.150	 -0.519	  0.130	 -0.328	  9.859	 -0.004	  0.003	  0.005	 25.800	 101.179	 -0.633
71777	  0.163	 -0.154	 -0.527	  0.125	 -0.328	  9.898	 -0.005	  0.002	  0.003	 25.800	 101.179	 -0.633
71827	  0.162	 -0.148	 -0.523	  0.118	 -0.337	  9.901	 -0.004	  0.003	  0.005	 25.800	 101.168	  0.310
71877	  0.162	 -0.152	 -0.525	  0.129	 -0.373	  9.894	 -0.004	  0.003	  0.006	 25.800	 101.179	 -0.633
71927	  0.164	 -0.148	 -0.524	  0.108	 -0.318	  9.899	 -0.003	  0.002	  0.002	 25.900	 101.168	  0.310
71977	  0.162	 -0.150	 -0.524	  0.137	 -0.354	  9.871	 -0.002	  0.000	  0.004	 25.800	 101.190	 -1.577
72027	  0.162	 -0.151	 -0.521	  0.099	 -0.315	  9.853	 -0.002	  0.003	  0.005	 25.800	 101.168	  0.310
72077	  0.162	 -0.153	 -0.525	  0.144	 -0.310	  9.900	 -0.003	  0.002	  0.007	 25.800	 101.179	 -0.633
72127	  0.163	 -0.146	 -0.524	  0.152	 -0.294	  9.900	 -0.004	  0.004	  0.002	 25.800	 101.168	  0.310
72177	  0.162	 -0.149	 -0.524	  0.140	 -0.322	  9.904	 -0.006	  0.004	  0.006	 25.800	 101.179	 -0.633
72227	  0.162	 -0.146	 -0.522	  0.156	 -0.302	  9.898	 -0.005	  0.004	  0.004	 25.800	 101.168	  0.310
72277	  0.162	 -0.151	 -0.523	  0.153	 -0.358	  9.892	 -0.005	  0.005	  0.007	 25.800	 101.168	  0.310
72327	  0.162	 -0.152	 -0.524	  0.144	 -0.334	  9.828	 -0.004	  0.005	  0.003	 25.800	 101.179	 -0.633
72377	  0.162	 -0.148	 -0.523	  0.123	 -0.361	  9.857	 -0.004	  0.004	  0.004	 25.800	 101.168	  0.310
72427	  0.162	 -0.152	 -0.522	  0.121	 -0.325	  9.884	 -0.003	  0.003	  0.005	 25.800	 101.168	  0.310
72477	  0.161	 -0.147	 -0.521	  0.128	 -0.300	  9.865	 -0.002	  0.004	  0.005	 25.800	 101.168	  0.310
72527	  0.162	 -0.149	 -0.529	  0.099	 -0.354	  9.895	 -0.003	  0.001	  0.004	 25.800	 101.168	  0.310
72577	  0.161	 -0.150	 -0.523	  0.097	 -0.312	  9.880	 -0.002	  0.002	  0.005	 25.900	 101.172	 -0.033
72627	  0.160	 -0.142	 -0.523	  0.124	 -0.338	  9.889	 -0.003	  0.002	  0.005	 25.800	 101.179	 -0.633
72677	  0.163	 -0.146	 -0.523	  0.136	 -0.314	  9.850	 -0.003	  0.001	  0.005	 25.900	 101.172	 -0.033
72727	  0.162	 -0.146	 -0.523	  0.134	 -0.347	  9.859	 -0.004	  0.001	  0.006	 25.800	 101.168	  0.310
72777	  0.162	 -0.141	 -0.520	  0.143	 -0.337	  9.901	 -0.003	 -0.001	  0.005	 25.900	 101.172	 -0.033
72827	  0.162	 -0.149	 -0.522	  0.121	 -0.338	  9.877	 -0.003	  0.003	  0.003	 25.800	 101.168	  0.310
72877	  0.162	 -0.150	 -0.526	  0.139	 -0.325	  9.861	 -0.003	  0.004	  0.004	 25.900	 101.172	 -0.033
72927	  0.163	 -0.142	 -0.524	  0.157	 -0.321	  9.894	 -0.002	  0.005	  0.003	 25.900	 101.168	  0.310
72977	  0.163	 -0.148	 -0.523	  0.142	 -0.351	  9.903	 -0.002	  0.004	  0.003	 25.800	 101.168	  0.310
73027	  0.164	 -0.153	 -0.523	  0.092	 -0.309	  9.837	 -0.004	  0.003	  0.003	 25.900	 101.194	 -1.920
73077	  0.164	 -0.148	 -0.523	  0.111	 -0.338	  9.886	 -0.003	  0.002	  0.006	 25.800	 101.168	  0.310
73127	  0.163	 -0.149	 -0.518	  0.092	 -0.287	  9.821	 -0.004	  0.002	  0.003	 25.900	 101.172	 -0.033
73177	  0.161	 -0.150	 -0.522	  0.119	 -0.361	  9.888	 -0.004	  0.002	  0.006	 25.800	 101.179	 -0.633
73227	  0.161	 -0.152	 -0.525	  0.150	 -0.299	  9.812	 -0.005	  0.002	  0.003	 25.900	 101.168	  0.310
73277	  0.162	 -0.149	 -0.523	  0.123	 -0.344	  9.890	 -0.004	  0.001	  0.006	 25.900	 101.172	 -0.033
73327	  0.164	 -0.149	 -0.522	  0.183	 -0.330	  9.906	 -0.003	  0.002	  0.002	 25.900	 101.168	  0.310
73377	  0.163	 -0.149	 -0.524	  0.133	 -0.332	  9.880	 -0.003	  0.003	  0.007	 25.900	 101.172	 -0.033
73427	  0.162	 -0.152	 -0.525	  0.167	 -0.362	  9.865	 -0.002	  0.002	  0.003	 25.900	 101.172	 -0.033
73477	  0.162	 -0.151	 -0.526	  0.106	 -0.318	  9.875	 -0.001	  0.003	  0.003	 25.900	 101.183	 -0.976
73527	  0.164	 -0.148	 -0.522	  0.101	 -0.348	  9.913	 -0.003	  0.003	  0.005	 25.900	 101.172	 -0.033
73577	  0.164	 -0.150	 -0.523	  0.144	 -0.294	  9.883	 -0.003	  0.002	  0.005	 25.900	 101.161	  0.910
73627	  0.164	 -0.150	 -0.521	  0.094	 -0.332	  9.866	 -0.004	  0.001	  0.006	 25.900	 101.183	 -0.976
73677	  0.163	 -0.149	 -0.521	  0.107	 -0.310	  9.863	 -0.004	  0.001	  0.007	 25.900	 101.172	 -0.033
73727	  0.162	 -0.149	 -0.521	  0.124	 -0.343	  9.857	 -0.005	  0.002	  0.005	 25.900	 101.157	  1.254
73777	  0.163	 -0.151	 -0.516	  0.133	 -0.350	  9.901	 -0.005	  0.000	  0.006	 25.900	 101.161	  0.910
73827	  0.161	 -0.144	 -0.522	  0.179	 -0.348	  9.893	 -0.004	  0.003	  0.004	 25.900	 101.172	 -0.033
73877	  0.162	 -0.141	 -0.523	  0.126	 -0.327	  9.883	 -0.003	  0.005	  0.004	 25.900	 101.183	 -0.976
73927	  0.162	 -0.140	 -0.523	  0.158	 -0.354	  9.865	 -0.001	  0.005	  0.005	 25.900	 101.172	 -0.033
73977	  0.163	 -0.149	 -0.522	  0.126	 -0.363	  9.886	 -0.001	  0.006	  0.003	 25.900	 101.168	  0.310
74027	  0.162	 -0.147	 -0.523	  0.110	 -0.295	  9.878	 -0.002	  0.006	  0.006	 25.900	 101.172	 -0.033
74077	  0.162	 -0.153	 -0.520	  0.104	 -0.332	  9.898	 -0.004	  0.004	  0.003	 25.900	 101.172	 -0.033
74127	  0.164	 -0.139	 -0.523	  0.106	 -0.270	  9.900	 -0.004	  0.003	  0.006	 25.900	 101.172	 -0.033
74177	  0.163	 -0.144	 -0.524	  0.112	 -0.325	  9.884	 -0.006	  0.002	  0.004	 25.900	 101.172	 -0.033
74227	  0.164	 -0.139	 -0.522	  0.123	 -0.354	  9.850	 -0.006	  0.001	  0.006	 25.900	 101.172	 -0.033
74277	  0.163	 -0.150	 -0.521	  0.173	 -0.350	  9.860	 -0.006	  0.002	  0.006	 25.800	 101.168	  0.310
74327	  0.162	 -0.152	 -0.525	  0.134	 -0.359	  9.844	 -0.004	  0.002	  0.004	 25.800	 101.179	 -0.633
74377	  0.163	 -0.150	 -0.522	  0.181	 -0.362	  9.871	 -0.003	  0.005	  0.003	 25.900	 101.172	 -0.033
74427	  0.162	 -0.148	 -0.524	  0.125	 -0.369	  9.864	 -0.000	  0.005	  0.001	 25.900	 101.183	 -0.976
74477	  0.163	 -0.150	 -0.524	  0.138	 -0.306	  9.863	 -0.002	  0.004	  0.008	 25.900	 101.183	 -0.976
74527	  0.162	 -0.153	 -0.523	  0.119	 -0.333	  9.912	 -0.003	  0.004	  0.003	 25.900	 101.183	 -0.976
74577	  0.162	 -0.144	 -0.524	  0.105	 -0.277	  9.880	 -0.003	  0.002	  0.006	 25.900	 101.172	 -0.033
74627	  0.163	 -0.152	 -0.525	  0.114	 -0.327	  9.874	 -0.004	  0.001	  0.005	 25.900	 101.172	 -0.033
74677	  0.161	 -0.143	 -0.525	  0.097	 -0.296	  9.836	 -0.005	  0.002	  0.008	 25.900	 101.172	 -0.033
74727	  0.161	 -0.150	 -0.522	  0.175	 -0.341	  9.850	 -0.005	  0.001	  0.002	 25.900	 101.172	 -0.033
74777	  0.163	 -0.138	 -0.519	  0.135	 -0.335	  9.904	 -0.004	  0.002	  0.005	 25.900	 101.161	  0.910
74827	  0.164	 -0.145	 -0.520	  0.163	 -0.393	  9.919	 -0.004	  0.002	  0.008	 25.900	 101.172	 -0.033
74877	  0.162	 -0.150	 -0.520	  0.128	 -0.322	  9.890	 -0.004	  0.004	  0.005	 25.900	 101.161	  0.910
74927	  0.165	 -0.146	 -0.525	  0.128	 -0.345	  9.873	 -0.003	  0.004	  0.001	 25.900	 101.172	 -0.033
74978	  0.162	 -0.148	 -0.520	  0.167	 -0.355	  9.882	 -0.004	  0.005	  0.002	 25.900	 101.172	 -0.033
75027	  0.164	 -0.148	 -0.524	  0.068	 -0.322	  9.862	 -0.003	  0.006	  0.006	 25.900	 101.161	  0.910
75078	  0.162	 -0.147	 -0.526	  0.157	 -0.310	  9.870	 -0.003	  0.006	  0.006	 25.900	 101.161	  0.910
75128	  0.163	 -0.150	 -0.518	  0.069	 -0.337	  9.813	 -0.003	  0.004	  0.001	 25.900	 101.172	 -0.033
75178	  0.164	 -0.139	 -0.525	  0.138	 -0.329	  9.825	 -0.002	  0.001	  0.009	 25.900	 101.172	 -0.033
75228	  0.163	 -0.147	 -0.523	  0.088	 -0.379	  9.866	 -0.003	  0.001	  0.004	 25.900	 101.183	 -0.976
75278	  0.162	 -0.152	 -0.517	  0.136	 -0.305	  9.912	 -0.003	 -0.000	  0.011	 25.900	 101.172	 -0.033
75328	  0.161	 -0.150	 -0.522	  0.161	 -0.348	  9.856	 -0.003	  0.001	 -0.002	 25.900	 101.172	 -0.033
75378	  0.163	 -0.151	 -0.521	  0.145	 -0.361	  9.857	 -0.003	  0.001	  0.012	 25.900	 101.172	 -0.033
75428	  0.163	 -0.145	 -0.522	  0.148	 -0.263	  9.796	 -0.002	  0.003	  0.001	 25.900	 101.161	  0.910
75478	  0.162	 -0.149	 -0.522	  0.196	 -0.480	  9.881	 -0.003	  0.003	  0.010	 25.900	 101.176	 -0.377
75528	  0.162	 -0.152	 -0.521	  0.177	 -0.195	  9.867	 -0.001	  0.006	 -0.004	 25.900	 101.172	 -0.033
75578	  0.162	 -0.151	 -0.522	  0.032	 -0.441	  9.921	 -0.002	  0.004	  0.011	 25.900	 101.183	 -0.976
75628	  0.162	 -0.149	 -0.521	  0.234	 -0.236	  9.850	 -0.004	  0.004	 -0.003	 25.900	 101.176	 -0.377
75678	  0.163	 -0.148	 -0.520	  0.023	 -0.413	  9.830	 -0.004	  0.005	  0.007	 25.900	 101.187	 -1.319
75728	  0.163	 -0.151	 -0.518	  0.195	 -0.285	  9.876	 -0.005	  0.001	  0.004	 25.900	 101.172	 -0.033
75778	  0.163	 -0.147	 -0.521	  0.033	 -0.356	  9.896	 -0.005	  0.002	  0.004	 25.900	 101.161	  0.910
75828	  0.164	 -0.146	 -0.524	  0.143	 -0.358	  9.875	 -0.005	  0.000	  0.010	 25.900	 101.165	  0.567
75878	  0.162	 -0.148	 -0.523	  0.184	 -0.335	  9.867	 -0.002	  0.001	 -0.003	 25.900	 101.176	 -0.377
75928	  0.166	 -0.153	 -0.526	  0.066	 -0.407	  9.924	 -0.003	  0.002	  0.010	 25.900	 101.176	 -0.377
75978	  0.162	 -0.150	 -0.524	  0.239	 -0.244	  9.855	 -0.002	  0.005	  0.004	 25.900	 101.165	  0.567
76028	  0.162	 -0.153	 -0.526	  0.029	 -0.420	  9.847	 -0.002	  0.004	  0.003	 25.900	 101.172	 -0.033
76078	  0.163	 -0.148	 -0.521	  0.223	 -0.254	  9.856	 -0.004	  0.004	  0.005	 25.900	 101.183	 -0.976
76128	  0.162	 -0.149	 -0.520	  0.046	 -0.381	  9.873	 -0.002	  0.004	  0.003	 25.900	 101.161	  0.910
76178	  0.162	 -0.148	 -0.522	  0.160	 -0.270	  9.893	 -0.004	  0.003	  0.010	 25.900	 101.176	 -0.377
76228	  0.162	 -0.153	 -0.523	  0.090	 -0.352	  9.866	 -0.005	  0.005	 -0.001	 25.900	 101.176	 -0.377
76278	  0.164	 -0.144	 -0.522	  0.097	 -0.320	  9.831	 -0.005	  0.001	  0.008	 25.900	 101.183	 -0.976
76328	  0.164	 -0.152	 -0.523	  0.170	 -0.339	  9.887	 -0.004	  0.002	  0.001	 25.900	 101.183	 -0.976
76378	  0.164	 -0.150	 -0.522	  0.101	 -0.387	  9.861	 -0.004	 -0.000	  0.007	 25.900	 101.172	 -0.033
76428	  0.162	 -0.147	 -0.523	  0.209	 -0.328	  9.907	 -0.003	  0.002	  0.002	 25.900	 101.172	 -0.033
76478	  0.163	 -0.140	 -0.523	  0.068	 -0.359	  9.884	 -0.001	  0.003	  0.007	 25.900	 101.165	  0.567
76528	  0.163	 -0.143	 -0.522	  0.213	 -0.315	  9.872	 -0.001	  0.004	  0.005	 25.900	 101.176	 -0.377
76578	  0.163	 -0.152	 -0.520	  0.096	 -0.350	  9.859	 -0.001	  0.003	  0.001	 25.900	 101.165	  0.567
76628	  0.164	 -0.152	 -0.522	  0.161	 -0.288	  9.875	 -0.003	  0.003	  0.007	 25.900	 101.176	 -0.377
76678	  0.164	 -0.149	 -0.524	  0.104	 -0.316	  9.869	 -0.003	  0.004	  0.003	 25.900	 101.172	 -0.033
76728	  0.162	 -0.153	 -0.520	  0.122	 -0.323	  9.881	 -0.005	  0.002	  0.006	 25.900	 101.161	  0.910
76778	  0.162	 -0.148	 -0.523	  0.115	 -0.310	  9.865	 -0.004	  0.003	  0.006	 25.900	 101.176	 -0.377
76828	  0.161	 -0.151	 -0.522	  0.142	 -0.348	  9.915	 -0.005	  0.002	  0.001	 25.900	 101.176	 -0.377
76878	  0.162	 -0.149	 -0.523	  0.120	 -0.309	  9.895	 -0.002	  0.002	  0.005	 25.900	 101.176	 -0.377
76928	  0.162	 -0.154	 -0.526	  0.132	 -0.430	  9.911	 -0.005	  0.003	  0.005	 25.900	 101.176	 -0.377
76978	  0.162	 -0.152	 -0.531	  0.143	 -0.246	  9.875	 -0.002	  0.004	  0.004	 25.900	 101.176	 -0.377
77028	  0.164	 -0.144	 -0.522	  0.056	 -0.471	  9.846	 -0.003	  0.003	  0.009	 25.900	 101.176	 -0.377
77078	  0.162	 -0.149	 -0.523	  0.171	 -0.196	  9.857	 -0.002	  0.002	 -0.006	 25.900	 101.161	  0.910
77128	  0.162	 -0.147	 -0.521	  0.098	 -0.438	  9.877	  0.001	  0.003	  0.012	 25.900	 101.165	  0.567
77178	  0.164	 -0.148	 -0.520	  0.106	 -0.279	  9.859	 -0.004	  0.002	  0.001	 25.900	 101.176	 -0.377
77228	  0.163	 -0.147	 -0.520	  0.083	 -0.268	  9.938	 -0.002	  0.003	  0.013	 25.900	 101.165	  0.567
77277	  0.163	 -0.146	 -0.523	  0.114	 -0.364	  9.920	 -0.005	  0.000	 -0.004	 25.900	 101.176	 -0.377
77327	  0.162	 -0.151	 -0.524	  0.162	 -0.306	  9.856	 -0.005	  0.004	  0.013	 25.900	 101.176	 -0.377
77377	  0.165	 -0.146	 -0.520	  0.096	 -0.400	  9.910	 -0.005	  0.002	 -0.004	 25.900	 101.165	  0.567
77427	  0.162	 -0.146	 -0.524	  0.213	 -0.258	  9.878	 -0.004	  0.002	  0.007	 25.900	 101.181	 -0.805
77477	  0.162	 -0.150	 -0.522	  0.131	 -0.442	  9.869	 -0.003	  0.004	  0.009	 25.900	 101.165	  0.567
77527	  0.162	 -0.149	 -0.520	  0.142	 -0.332	  9.869	 -0.004	  0.005	  0.008	 25.900	 101.176	 -0.377
77577	  0.162	 -0.150	 -0.523	  0.108	 -0.270	  9.811	  0.001	  0.005	 -0.008	 25.900	 101.165	  0.567
77627	  0.165	 -0.147	 -0.524	  0.152	 -0.398	  9.941	 -0.002	  0.004	  0.003	 25.900	 101.165	  0.567
77677	  0.163	 -0.146	 -0.522	  0.129	 -0.271	  9.890	 -0.004	  0.003	  0.010	 25.900	 101.165	  0.567
77727	  0.160	 -0.149	 -0.523	  0.060	 -0.277	  9.874	 -0.003	  0.001	  0.002	 25.900	 101.169	  0.224
77777	  0.165	 -0.152	 -0.524	  0.140	 -0.334	  9.843	 -0.005	  0.000	 -0.001	 25.900	 101.165	  0.567
77827	  0.162	 -0.147	 -0.523	  0.163	 -0.408	  9.857	 -0.007	  0.002	  0.014	 25.900	 101.165	  0.567
77877	  0.162	 -0.148	 -0.521	  0.080	 -0.264	  9.955	 -0.005	  0.002	 -0.000	 25.900	 101.165	  0.567
77927	  0.163	 -0.146	 -0.525	  0.170	 -0.393	  9.939	 -0.002	  0.004	  0.012	 25.900	 101.165	  0.567
77977	  0.162	 -0.151	 -0.523	  0.126	 -0.365	  9.864	 -0.001	  0.004	 -0.003	 25.900	 101.176	 -0.377
78027	  0.163	 -0.151	 -0.522	  0.224	 -0.321	  9.840	  0.001	  0.006	  0.014	 25.900	 101.165	  0.567
78077	  0.162	 -0.147	 -0.527	  0.051	 -0.090	 10.007	  0.003	  0.006	 -0.029	 25.900	 101.176	 -0.377
78127	  0.163	 -0.152	 -0.523	 -0.031	 -0.298	 10.054	 -0.001	  0.004	  0.028	 25.900	 101.181	 -0.805
78177	  0.163	 -0.148	 -0.525	  0.183	 -0.251	  9.930	 -0.006	  0.000	 -0.011	 25.900	 101.176	 -0.377
78227	  0.164	 -0.156	 -0.522	  0.154	 -0.310	  9.832	 -0.007	 -0.001	  0.023	 25.900	 101.176	 -0.377
78277	  0.163	 -0.152	 -0.524	  0.087	 -0.339	  9.790	 -0.010	 -0.001	 -0.006	 25.900	 101.176	 -0.377
78327	  0.163	 -0.140	 -0.521	  0.168	 -0.361	  9.865	 -0.006	 -0.001	  0.017	 25.900	 101.165	  0.567
78377	  0.162	 -0.146	 -0.523	  0.238	 -0.425	  9.902	 -0.005	  0.002	 -0.007	 25.900	 101.165	  0.567
78427	  0.165	 -0.150	 -0.525	  0.076	 -0.323	  9.890	 -0.001	  0.004	  0.010	 25.900	 101.169	  0.224
78477	  0.164	 -0.149	 -0.526	  0.257	 -0.407	  9.932	 -0.000	  0.006	 -0.001	 25.900	 101.165	  0.567
78527	  0.164	 -0.150	 -0.527	 -0.018	 -0.376	  9.892	  0.001	  0.007	  0.018	 25.900	 101.176	 -0.377
78577	  0.162	 -0.150	 -0.525	  0.426	 -0.440	  9.775	 -0.000	  0.005	 -0.014	 25.900	 101.165	  0.567
78627	  0.163	 -0.149	 -0.525	  0.035	 -0.334	  9.851	  0.001	  0.006	  0.007	 25.900	 101.176	 -0.377
78677	  0.165	 -0.150	 -0.524	 -0.164	 -0.213	  9.887	 -0.007	  0.000	  0.004	 25.900	 101.165	  0.567
78727	  0.163	 -0.138	 -0.523	  0.180	 -0.255	  9.886	 -0.004	  0.002	  0.010	 25.900	 101.176	 -0.377
78777	  0.165	 -0.150	 -0.525	  0.079	 -0.452	  9.849	 -0.007	 -0.001	 -0.004	 25.900	 101.176	 -0.377
78827	  0.163	 -0.144	 -0.523	  0.183	 -0.241	  9.849	 -0.007	 -0.001	  0.019	 25.900	 101.165	  0.567
78877	  0.162	 -0.153	 -0.520	  0.131	 -0.467	  9.863	 -0.006	  0.001	 -0.004	 25.900	 101.181	 -0.805
78927	  0.165	 -0.149	 -0.523	  0.188	 -0.301	  9.844	 -0.002	  0.001	  0.009	 25.900	 101.169	  0.224
78977	  0.161	 -0.145	 -0.523	  0.195	 -0.420	  9.934	 -0.000	  0.005	 -0.001	 25.900	 101.181	 -0.805
79027	  0.164	 -0.140	 -0.525	  0.091	 -0.266	  9.892	  0.002	  0.007	  0.007	 25.900	 101.169	  0.224
79077	  0.163	 -0.149	 -0.523	  0.177	 -0.356	  9.861	  0.001	  0.007	  0.004	 25.900	 101.165	  0.567
79127	  0.164	 -0.150	 -0.523	  0.027	 -0.261	  9.862	 -0.002	  0.006	 -0.000	 25.900	 101.165	  0.567
79177	  0.162	 -0.150	 -0.522	  0.145	 -0.311	  9.853	 -0.005	  0.004	  0.009	 25.900	 101.165	  0.567
79227	  0.164	 -0.144	 -0.526	  0.076	 -0.267	  9.866	 -0.006	  0.003	  0.001	 25.900	 101.181	 -0.805
79277	  0.163	 -0.147	 -0.521	  0.066	 -0.351	  9.879	 -0.008	  0.001	  0.013	 25.900	 101.169	  0.224
79327	  0.163	 -0.148	 -0.525	  0.179	 -0.332	  9.866	 -0.009	 -0.001	  0.002	 25.900	 101.181	 -0.805
79377	  0.163	 -0.144	 -0.522	  0.116	 -0.385	  9.886	 -0.005	  0.000	  0.007	 25.900	 101.165	  0.567
79427	  0.164	 -0.146	 -0.522	  0.199	 -0.400	  9.884	 -0.003	 -0.000	  0.003	 25.900	 101.165	  0.567
79477	  0.162	 -0.150	 -0.529	  0.127	 -0.359	  9.845	 -0.000	  0.004	  0.007	 25.900	 101.165	  0.567
79527	  0.164	 -0.148	 -0.520	  0.172	 -0.360	  9.893	  0.001	  0.004	  0.004	 25.900	 101.181	 -0.805
79577	  0.163	 -0.143	 -0.522	  0.118	 -0.291	  9.906	  0.001	  0.005	  0.003	 25.900	 101.158	  1.168
79627	  0.162	 -0.152	 -0.529	  0.099	 -0.311	  9.853	 -0.001	  0.006	  0.003	 25.900	 101.169	  0.224
79677	  0.164	 -0.140	 -0.521	  0.096	 -0.271	  9.854	 -0.004	  0.004	  0.004	 25.900	 101.181	 -0.805
79727	  0.163	 -0.151	 -0.518	  0.088	 -0.333	  9.844	 -0.007	  0.004	  0.006	 25.900	 101.169	  0.224
79777	  0.164	 -0.142	 -0.522	  0.110	 -0.309	  9.891	 -0.007	  0.003	  0.006	 25.900	 101.169	  0.224
79827	  0.163	 -0.149	 -0.525	  0.096	 -0.377	  9.918	 -0.007	  0.001	  0.005	 25.900	 101.181	 -0.805
79877	  0.164	 -0.155	 -0.526	  0.159	 -0.346	  9.835	 -0.006	 -0.000	  0.004	 25.900	 101.169	  0.224
79927	  0.162	 -0.150	 -0.522	  0.160	 -0.422	  9.841	 -0.004	  0.000	  0.006	 25.900	 101.169	  0.224
79977	  0.164	 -0.149	 -0.529	  0.169	 -0.371	  9.889	 -0.002	  0.002	  0.005	 25.900	 101.181	 -0.805
80027	  0.164	 -0.150	 -0.524	  0.147	 -0.356	  9.926	 -0.001	  0.003	  0.004	 25.900	 101.181	 -0.805
80077	  0.164	 -0.141	 -0.520	  0.152	 -0.332	  9.834	  0.001	  0.004	  0.004	 25.900	 101.158	  1.168
80127	  0.163	 -0.147	 -0.521	  0.142	 -0.307	  9.839	 -0.001	  0.004	  0.003	 25.900	 101.181	 -0.805
80177	  0.163	 -0.150	 -0.522	  0.123	 -0.296	  9.877	 -0.002	  0.005	  0.005	 25.900	 101.169	  0.224
80227	  0.163	 -0.144	 -0.521	  0.085	 -0.280	  9.837	 -0.005	  0.006	  0.003	 25.900	 101.169	  0.224
80277	  0.163	 -0.153	 -0.525	  0.110	 -0.327	  9.860	 -0.007	  0.002	  0.006	 25.900	 101.158	  1.168
80327	  0.162	 -0.148	 -0.522	  0.119	 -0.342	  9.858	 -0.006	  0.001	  0.003	 25.900	 101.181	 -0.805
80377	  0.165	 -0.152	 -0.526	  0.134	 -0.386	  9.898	 -0.006	  0.000	  0.006	 25.900	 101.181	 -0.805
80427	  0.162	 -0.149	 -0.529	  0.136	 -0.350	  9.930	 -0.004	  0.001	  0.005	 25.900	 101.169	  0.224
80477	  0.162	 -0.152	 -0.523	  0.161	 -0.359	  9.907	 -0.002	  0.002	  0.004	 25.900	 101.169	  0.224
80527	  0.163	 -0.146	 -0.524	  0.186	 -0.380	  9.816	  0.000	  0.004	  0.001	 25.900	 101.169	  0.224
80578	  0.161	 -0.149	 -0.524	  0.118	 -0.325	  9.859	  0.001	  0.004	  0.005	 25.900	 101.169	  0.224
80627	  0.163	 -0.146	 -0.521	  0.117	 -0.301	  9.856	 -0.001	  0.004	  0.003	 25.900	 101.169	  0.224
80677	  0.163	 -0.151	 -0.523	  0.095	 -0.301	  9.876	 -0.003	  0.003	  0.006	 25.900	 101.181	 -0.805
80727	  0.162	 -0.150	 -0.524	  0.143	 -0.265	  9.885	 -0.005	  0.005	  0.004	 25.900	 101.169	  0.224
80777	  0.163	 -0.143	 -0.523	  0.084	 -0.332	  9.881	 -0.007	  0.003	  0.005	 25.900	 101.169	  0.224
80828	  0.162	 -0.150	 -0.523	  0.142	 -0.329	  9.875	 -0.007	  0.003	  0.006	 25.900	 101.169	  0.224
80878	  0.164	 -0.151	 -0.523	  0.133	 -0.390	  9.858	 -0.007	  0.002	  0.005	 25.900	 101.181	 -0.805
80928	  0.163	 -0.147	 -0.524	  0.147	 -0.373	  9.858	 -0.005	  0.002	  0.003	 25.900	 101.158	  1.168
80978	  0.162	 -0.147	 -0.521	  0.140	 -0.382	  9.878	 -0.001	  0.001	  0.004	 25.900	 101.169	  0.224
81028	  0.163	 -0.156	 -0.525	  0.103	 -0.357	  9.948	  0.000	  0.002	  0.003	 25.900	 101.169	  0.224
81078	  0.162	 -0.149	 -0.522	  0.168	 -0.303	  9.910	  0.002	  0.004	  0.005	 25.900	 101.169	  0.224
81128	  0.162	 -0.153	 -0.529	  0.118	 -0.349	  9.897	 -0.000	  0.005	  0.003	 25.900	 101.181	 -0.805
81178	  0.162	 -0.148	 -0.525	  0.144	 -0.250	  9.845	 -0.001	  0.003	  0.007	 25.900	 101.158	  1.168
81228	  0.163	 -0.152	 -0.521	  0.104	 -0.313	  9.843	 -0.003	  0.004	  0.001	 25.900	 101.181	 -0.805
81278	  0.162	 -0.151	 -0.525	  0.125	 -0.274	  9.857	 -0.005	  0.003	  0.005	 25.900	 101.158	  1.168
81328	  0.162	 -0.149	 -0.525	  0.127	 -0.346	  9.847	 -0.008	  0.004	  0.008	 25.900	 101.169	  0.224
81378	  0.164	 -0.145	 -0.518	  0.101	 -0.339	  9.895	 -0.006	  0.002	  0.003	 25.900	 101.174	 -0.205
81428	  0.162	 -0.149	 -0.523	  0.156	 -0.384	  9.917	 -0.004	  0.002	  0.004	 25.900	 101.169	  0.224
81478	  0.163	 -0.150	 -0.529	  0.148	 -0.385	  9.903	 -0.003	  0.003	  0.003	 25.900	 101.174	 -0.205
81528	  0.167	 -0.145	 -0.524	  0.125	 -0.334	  9.867	 -0.001	  0.004	  0.007	 25.900	 101.169	  0.224
81578	  0.163	 -0.148	 -0.524	  0.114	 -0.346	  9.917	  0.001	  0.005	  0.004	 25.900	 101.174	 -0.205
81628	  0.163	 -0.147	 -0.520	  0.166	 -0.296	  9.868	 -0.000	  0.005	  0.002	 25.900	 101.174	 -0.205
81678	  0.162	 -0.152	 -0.525	  0.064	 -0.311	  9.833	 -0.003	  0.005	  0.002	 25.900	 101.169	  0.224
81728	  0.158	 -0.144	 -0.522	  0.127	 -0.279	  9.855	 -0.004	  0.005	  0.008	 25.900	 101.174	 -0.205
81778	  0.163	 -0.153	 -0.522	  0.090	 -0.314	  9.873	 -0.006	  0.004	  0.003	 25.900	 101.174	 -0.205
81828	  0.163	 -0.140	 -0.526	  0.146	 -0.322	  9.880	 -0.007	  0.001	  0.006	 25.900	 101.174	 -0.205
81878	  0.162	 -0.150	 -0.525	  0.073	 -0.324	  9.955	 -0.008	  0.001	  0.003	 25.900	 101.169	  0.224
81928	  0.162	 -0.149	 -0.524	  0.059	 -0.275	  9.990	 -0.006	  0.001	  0.005	 25.900	 101.174	 -0.205
81978	  0.163	 -0.145	 -0.523	  0.335	 -0.604	 10.111	 -0.004	 -0.000	  0.002	 25.900	 101.163	  0.739
82028	  0.162	 -0.152	 -0.523	  0.135	 -0.288	  9.900	 -0.002	  0.003	  0.007	 25.900	 101.169	  0.224
82078	  0.164	 -0.141	 -0.525	  0.053	 -0.281	  9.846	  0.001	  0.004	  0.009	 25.900	 101.158	  1.168
82128	  0.164	 -0.151	 -0.522	  0.116	 -0.333	  9.833	  0.001	  0.004	 -0.006	 25.900	 101.174	 -0.205
82178	  0.163	 -0.149	 -0.524	  0.177	 -0.360	  9.890	  0.001	  0.006	  0.009	 25.900	 101.163	  0.739
82228	  0.162	 -0.151	 -0.522	  0.090	 -0.259	  9.858	 -0.003	  0.004	  0.002	 25.900	 101.169	  0.224
82278	  0.163	 -0.153	 -0.520	  0.041	 -0.248	  9.850	 -0.006	  0.003	  0.010	 25.900	 101.174	 -0.205
82328	  0.162	 -0.152	 -0.523	  0.114	 -0.333	  9.872	 -0.007	  0.001	  0.002	 25.900	 101.169	  0.224
82378	  0.163	 -0.146	 -0.525	  0.082	 -0.347	  9.850	 -0.007	  0.001	  0.007	 25.900	 101.174	 -0.205
82428	  0.164	 -0.141	 -0.522	  0.127	 -0.362	  9.900	 -0.008	  0.000	  0.005	 25.900	 101.174	 -0.205
82478	  0.163	 -0.149	 -0.530	  0.131	 -0.393	  9.859	 -0.003	 -0.000	  0.001	 25.900	 101.169	  0.224
82528	  0.162	 -0.150	 -0.525	  0.153	 -0.385	  9.881	 -0.001	  0.002	  0.007	 25.900	 101.174	 -0.205
82578	  0.164	 -0.142	 -0.522	  0.164	 -0.357	  9.869	  0.001	  0.003	  0.004	 25.900	 101.163	  0.739
82628	  0.163	 -0.147	 -0.523	  0.145	 -0.318	  9.827	  0.001	  0.004	  0.002	 25.900	 101.163	  0.739
82678	  0.164	 -0.148	 -0.522	  0.160	 -0.308	  9.816	  0.001	  0.005	  0.000	 25.900	 101.169	  0.224
82728	  0.161	 -0.143	 -0.520	  0.112	 -0.279	  9.867	 -0.001	  0.006	  0.009	 25.900	 101.174	 -0.205
82778	  0.162	 -0.151	 -0.523	  0.125	 -0.285	  9.879	 -0.003	  0.005	  0.003	 25.900	 101.163	  0.739
82828	  0.163	 -0.151	 -0.525	  0.128	 -0.287	  9.872	 -0.007	  0.005	  0.006	 25.900	 101.169	  0.224
82878	  0.163	 -0.149	 -0.520	  0.117	 -0.345	  9.804	 -0.009	  0.003	  0.009	 25.900	 101.174	 -0.205
82928	  0.162	 -0.148	 -0.523	  0.076	 -0.333	  9.865	 -0.008	  0.002	  0.006	 25.900	 101.169	  0.224
82978	  0.163	 -0.148	 -0.522	  0.173	 -0.398	  9.945	 -0.006	  0.001	  0.003	 25.900	 101.174	 -0.205
83028	  0.163	 -0.143	 -0.523	  0.103	 -0.400	  9.903	 -0.002	  0.002	 -0.003	 25.900	 101.181	 -0.805
83078	  0.164	 -0.144	 -0.521	  0.190	 -0.443	  9.899	 -0.000	  0.001	  0.005	 25.900	 101.174	 -0.205
83128	  0.163	 -0.146	 -0.525	  0.199	 -0.388	  9.891	  0.003	  0.004	  0.005	 25.900	 101.174	 -0.205
83178	  0.162	 -0.152	 -0.523	  0.121	 -0.322	  9.803	  0.004	  0.004	  0.004	 25.900	 101.163	  0.739
83228	  0.164	 -0.142	 -0.522	  0.104	 -0.305	  9.862	  0.002	  0.003	  0.003	 25.900	 101.178	 -0.547
83278	  0.164	 -0.151	 -0.530	  0.054	 -0.195	  9.893	  0.000	  0.005	  0.011	 25.900	 101.174	 -0.205
83328	  0.164	 -0.149	 -0.521	  0.089	 -0.255	  9.894	 -0.003	  0.002	  0.008	 25.900	 101.174	 -0.205
83378	  0.164	 -0.148	 -0.518	  0.129	 -0.258	  9.843	 -0.007	  0.003	  0.002	 25.900	 101.174	 -0.205
83428	  0.163	 -0.149	 -0.522	  0.107	 -0.361	  9.873	 -0.011	  0.002	  0.011	 25.900	 101.174	 -0.205
83478	  0.162	 -0.152	 -0.524	  0.193	 -0.309	  9.846	 -0.008	  0.002	  0.005	 25.900	 101.174	 -0.205
83528	  0.162	 -0.152	 -0.525	  0.136	 -0.428	  9.874	 -0.006	  0.002	 -0.012	 25.900	 101.163	  0.739
83578	  0.163	 -0.148	 -0.521	  0.167	 -0.378	  9.874	 -0.004	  0.004	  0.009	 25.900	 101.174	 -0.205
83628	  0.166	 -0.152	 -0.531	  0.121	 -0.378	  9.879	  0.001	  0.003	  0.004	 25.900	 101.174	 -0.205
83678	  0.162	 -0.149	 -0.523	  0.110	 -0.346	  9.877	  0.001	  0.005	  0.002	 25.900	 101.185	 -1.148
83728	  0.161	 -0.150	 -0.522	  0.127	 -0.306	  9.871	  0.001	  0.004	  0.006	 25.900	 101.163	  0.739
83778	  0.162	 -0.151	 -0.526	  0.105	 -0.264	  9.863	  0.001	  0.004	  0.009	 25.900	 101.163	  0.739
83828	  0.162	 -0.142	 -0.522	  0.105	 -0.274	  9.865	 -0.003	  0.002	  0.005	 25.900	 101.169	  0.224
83878	  0.163	 -0.151	 -0.520	  0.147	 -0.235	  9.823	 -0.007	  0.002	  0.006	 25.900	 101.174	 -0.205
83928	  0.161	 -0.149	 -0.526	  0.123	 -0.338	  9.874	 -0.008	  0.002	  0.004	 25.900	 101.167	  0.396
83978	  0.163	 -0.156	 -0.525	  0.138	 -0.320	  9.887	 -0.009	  0.003	  0.006	 25.900	 101.174	 -0.205
84028	  0.163	 -0.144	 -0.522	  0.136	 -0.389	  9.885	 -0.007	  0.004	  0.002	 25.900	 101.174	 -0.205
84078	  0.164	 -0.152	 -0.521	  0.131	 -0.374	  9.878	 -0.004	  0.005	 -0.003	 25.900	 101.174	 -0.205
84128	  0.161	 -0.153	 -0.526	  0.121	 -0.422	  9.878	 -0.001	  0.007	  0.003	 25.900	 101.167	  0.396
84178	  0.163	 -0.145	 -0.524	  0.104	 -0.318	  9.884	  0.001	  0.005	  0.003	 25.900	 101.163	  0.739
84228	  0.162	 -0.151	 -0.522	  0.095	 -0.324	  9.843	  0.002	  0.006	  0.003	 25.900	 101.174	 -0.205
84278	  0.162	 -0.150	 -0.526	  0.063	 -0.301	  9.849	 -0.001	  0.003	  0.004	 25.900	 101.174	 -0.205
84328	  0.162	 -0.152	 -0.523	  0.112	 -0.267	  9.883	 -0.003	  0.001	  0.006	 25.900	 101.174	 -0.205
84378	  0.162	 -0.151	 -0.529	  0.090	 -0.290	  9.829	 -0.003	  0.002	  0.006	 25.900	 101.178	 -0.547
84428	  0.162	 -0.153	 -0.526	  0.136	 -0.296	  9.874	 -0.007	 -0.000	  0.006	 25.900	 101.163	  0.739
84478	  0.163	 -0.151	 -0.523	  0.110	 -0.326	  9.925	 -0.007	 -0.000	  0.006	 25.900	 101.167	  0.396
84528	  0.164	 -0.149	 -0.529	  0.201	 -0.348	  9.910	 -0.007	  0.002	  0.007	 25.900	 101.174	 -0.205
84578	  0.164	 -0.142	 -0.521	  0.154	 -0.360	  9.921	 -0.005	  0.004	  0.002	 25.900	 101.174	 -0.205
84628	  0.164	 -0.151	 -0.527	  0.185	 -0.371	  9.913	 -0.001	  0.008	  0.004	 25.900	 101.178	 -0.547
84678	  0.163	 -0.146	 -0.522	  0.151	 -0.347	  9.891	 -0.001	  0.006	  0.001	 25.900	 101.178	 -0.547
84728	  0.165	 -0.151	 -0.523	  0.063	 -0.317	  9.904	 -0.001	  0.005	  0.003	 25.900	 101.163	  0.739
84778	  0.163	 -0.151	 -0.523	  0.089	 -0.314	  9.794	  0.000	  0.005	 -0.000	 25.900	 101.167	  0.396
84828	  0.163	 -0.151	 -0.521	  0.104	 -0.319	  9.898	 -0.003	  0.002	  0.006	 25.900	 101.174	 -0.205
84878	  0.166	 -0.145	 -0.522	  0.098	 -0.262	  9.940	 -0.005	  0.000	  0.003	 25.900	 101.178	 -0.547
84928	  0.164	 -0.152	 -0.525	  0.079	 -0.318	  9.858	 -0.005	 -0.001	  0.007	 25.900	 101.174	 -0.205
84978	  0.162	 -0.150	 -0.525	  0.146	 -0.313	  9.831	 -0.007	 -0.001	  0.009	 25.900	 101.163	  0.739
85028	  0.164	 -0.151	 -0.527	  0.094	 -0.389	  9.911	 -0.005	 -0.003	  0.008	 25.900	 101.167	  0.396
85078	  0.164	 -0.142	 -0.524	  0.211	 -0.332	  9.912	 -0.003	  0.001	  0.003	 25.900	 101.163	  0.739
85128	  0.163	 -0.152	 -0.523	  0.141	 -0.366	  9.891	 -0.002	  0.003	  0.003	 25.900	 101.167	  0.396
85178	  0.163	 -0.146	 -0.523	  0.195	 -0.331	  9.914	 -0.002	  0.006	  0.006	 25.900	 101.167	  0.396
85228	  0.164	 -0.143	 -0.524	  0.117	 -0.342	  9.872	  0.001	  0.007	  0.002	 25.900	 101.163	  0.739
85278	  0.162	 -0.150	 -0.523	  0.104	 -0.307	  9.853	 -0.000	  0.007	  0.003	 25.900	 101.163	  0.739
85328	  0.165	 -0.148	 -0.524	  0.096	 -0.304	  9.855	 -0.002	  0.006	  0.001	 25.900	 101.167	  0.396
85378	  0.162	 -0.154	 -0.526	  0.076	 -0.261	  9.862	 -0.003	  0.003	  0.004	 25.900	 101.174	 -0.205
85428	  0.162	 -0.152	 -0.526	  0.092	 -0.304	  9.839	 -0.006	  0.002	  0.006	 25.900	 101.167	  0.396
85478	  0.165	 -0.147	 -0.523	  0.139	 -0.341	  9.845	 -0.006	  0.000	  0.008	 25.900	 101.178	 -0.547
85528	  0.163	 -0.146	 -0.522	  0.122	 -0.325	  9.862	 -0.006	  0.001	  0.006	 25.900	 101.167	  0.396
85578	  0.165	 -0.150	 -0.524	  0.123	 -0.362	  9.910	 -0.005	 -0.002	  0.006	 25.900	 101.178	 -0.547
85628	  0.165	 -0.150	 -0.526	  0.161	 -0.366	  9.907	 -0.004	  0.000	  0.002	 25.900	 101.178	 -0.547
85678	  0.165	 -0.153	 -0.526	  0.168	 -0.384	  9.880	 -0.002	  0.003	  0.008	 25.900	 101.167	  0.396
85728	  0.164	 -0.143	 -0.526	  0.182	 -0.320	  9.900	 -0.000	  0.004	  0.001	 25.900	 101.178	 -0.547
85778	  0.164	 -0.146	 -0.523	  0.143	 -0.297	  9.866	 -0.000	  0.007	  0.006	 25.900	 101.163	  0.739
85828	  0.165	 -0.147	 -0.524	  0.144	 -0.329	  9.832	 -0.001	  0.008	  0.001	 25.900	 101.167	  0.396
85878	  0.164	 -0.144	 -0.522	  0.057	 -0.271	  9.894	 -0.004	  0.006	  0.007	 25.900	 101.189	 -1.492
85928	  0.164	 -0.153	 -0.525	  0.110	 -0.283	  9.887	 -0.004	  0.005	  0.001	 25.900	 101.167	  0.396
85978	  0.162	 -0.150	 -0.522	  0.035	 -0.317	  9.818	 -0.007	  0.004	  0.004	 25.900	 101.163	  0.739
86028	  0.165	 -0.151	 -0.523	  0.114	 -0.327	  9.873	 -0.007	  0.002	  0.009	 25.900	 101.178	 -0.547
86078	  0.165	 -0.150	 -0.527	  0.065	 -0.363	  9.904	 -0.007	 -0.000	  0.001	 25.900	 101.178	 -0.547
86129	  0.165	 -0.149	 -0.524	  0.086	 -0.357	  9.876	 -0.005	 -0.001	  0.010	 25.900	 101.167	  0.396
86178	  0.164	 -0.146	 -0.524	  0.177	 -0.370	  9.869	 -0.002	 -0.001	  0.004	 25.900	 101.178	 -0.547
86228	  0.165	 -0.150	 -0.525	  0.158	 -0.349	  9.881	 -0.000	 -0.001	  0.004	 25.900	 101.167	  0.396
86279	  0.164	 -0.151	 -0.523	  0.189	 -0.333	  9.915	 -0.000	  0.001	  0.005	 25.900	 101.167	  0.396
86329	  0.165	 -0.152	 -0.522	  0.138	 -0.274	  9.907	 -0.001	  0.004	  0.006	 25.900	 101.167	  0.396
86378	  0.165	 -0.151	 -0.526	  0.125	 -0.302	  9.877	 -0.002	  0.006	  0.008	 25.900	 101.167	  0.396
86429	  0.165	 -0.147	 -0.531	  0.132	 -0.286	  9.876	 -0.004	  0.006	  0.000	 25.900	 101.167	  0.396
86479	  0.162	 -0.150	 -0.525	  0.065	 -0.292	  9.839	 -0.006	  0.005	  0.004	 25.900	 101.178	 -0.547
86529	  0.164	 -0.143	 -0.523	  0.129	 -0.341	  9.865	 -0.007	  0.004	  0.006	 25.900	 101.156	  1.340
86579	  0.165	 -0.150	 -0.525	  0.070	 -0.333	  9.860	 -0.007	  0.002	  0.002	 25.900	 101.178	 -0.547
86628	  0.164	 -0.150	 -0.523	  0.122	 -0.375	  9.899	 -0.006	  0.001	  0.006	 25.900	 101.167	  0.396
86679	  0.164	 -0.152	 -0.520	  0.125	 -0.351	  9.864	 -0.003	 -0.001	  0.005	 25.900	 101.156	  1.340
86728	  0.162	 -0.150	 -0.531	  0.127	 -0.366	  9.931	 -0.002	 -0.001	  0.008	 25.900	 101.167	  0.396
86779	  0.162	 -0.149	 -0.524	  0.165	 -0.305	  9.864	 -0.001	  0.002	  0.004	 25.900	 101.167	  0.396
86828	  0.163	 -0.152	 -0.525	  0.128	 -0.336	  9.841	 -0.001	  0.003	  0.005	 25.900	 101.167	  0.396
86878	  0.165	 -0.146	 -0.525	  0.152	 -0.283	  9.875	 -0.000	  0.003	  0.006	 25.900	 101.167	  0.396
86928	  0.163	 -0.148	 -0.529	  0.142	 -0.297	  9.897	 -0.002	  0.005	  0.006	 25.900	 101.171	  0.053
86978	  0.167	 -0.149	 -0.521	  0.143	 -0.286	  9.861	 -0.006	  0.004	  0.002	 25.900	 101.167	  0.396
87028	  0.163	 -0.146	 -0.526	  0.104	 -0.316	  9.851	 -0.006	  0.005	  0.005	 25.900	 101.167	  0.396
87078	  0.162	 -0.150	 -0.522	  0.074	 -0.330	  9.886	 -0.006	  0.004	  0.005	 25.900	 101.167	  0.396
87128	  0.163	 -0.145	 -0.520	  0.092	 -0.348	  9.876	 -0.006	  0.002	  0.005	 26.000	 101.178	 -0.547
87178	  0.164	 -0.142	 -0.522	  0.120	 -0.372	  9.874	 -0.004	  0.002	  0.003	 25.900	 101.167	  0.396
87228	  0.165	 -0.150	 -0.527	  0.079	 -0.358	  9.902	 -0.003	 -0.001	  0.003	 25.900	 101.167	  0.396
87278	  0.164	 -0.139	 -0.522	  0.144	 -0.366	  9.882	 -0.001	  0.001	  0.007	 26.000	 101.182	 -0.891
87328	  0.165	 -0.150	 -0.522	  0.145	 -0.320	  9.831	  0.001	  0.002	  0.004	 26.000	 101.178	 -0.547
87378	  0.165	 -0.151	 -0.524	  0.117	 -0.325	  9.871	 -0.000	  0.003	  0.005	 25.900	 101.167	  0.396
87428	  0.164	 -0.145	 -0.519	  0.167	 -0.286	  9.881	 -0.001	  0.003	  0.005	 25.900	 101.167	  0.396
87478	  0.163	 -0.151	 -0.524	  0.137	 -0.304	  9.897	 -0.003	  0.004	  0.005	 25.900	 101.167	  0.396
87528	  0.164	 -0.149	 -0.529	  0.143	 -0.306	  9.877	 -0.005	  0.005	  0.003	 26.000	 101.171	  0.053
87578	  0.164	 -0.139	 -0.524	  0.106	 -0.303	  9.873	 -0.007	  0.003	  0.004	 26.000	 101.171	  0.053
87628	  0.165	 -0.147	 -0.522	  0.118	 -0.340	  9.884	 -0.007	  0.004	  0.004	 26.000	 101.167	  0.396
87678	  0.163	 -0.147	 -0.525	  0.118	 -0.342	  9.883	 -0.006	  0.004	  0.004	 25.900	 101.167	  0.396
87728	  0.164	 -0.145	 -0.520	  0.100	 -0.376	  9.884	 -0.003	  0.003	  0.001	 26.000	 101.171	  0.053
87778	  0.164	 -0.144	 -0.524	  0.102	 -0.367	  9.875	 -0.003	  0.002	  0.006	 26.000	 101.171	  0.053
87828	  0.163	 -0.140	 -0.523	  0.089	 -0.377	  9.902	 -0.000	  0.001	  0.006	 25.900	 101.167	  0.396
87878	  0.162	 -0.155	 -0.524	  0.129	 -0.327	  9.899	 -0.001	  0.001	  0.005	 25.900	 101.167	  0.396
87928	  0.166	 -0.149	 -0.525	  0.157	 -0.319	  9.851	 -0.001	  0.002	  0.004	 25.900	 101.171	  0.053
87978	  0.164	 -0.153	 -0.522	  0.114	 -0.290	  9.866	 -0.002	  0.001	  0.006	 26.000	 101.171	  0.053
88028	  0.164	 -0.143	 -0.524	  0.151	 -0.313	  9.884	 -0.004	  0.002	  0.007	 25.900	 101.171	  0.053
88078	  0.164	 -0.150	 -0.523	  0.090	 -0.293	  9.869	 -0.005	  0.005	  0.004	 26.000	 101.171	  0.053
88128	  0.164	 -0.144	 -0.522	  0.146	 -0.312	  9.861	 -0.004	  0.005	  0.003	 26.000	 101.167	  0.396
88178	  0.164	 -0.151	 -0.530	  0.110	 -0.361	  9.852	 -0.006	  0.004	  0.005	 26.000	 101.182	 -0.891
88228	  0.163	 -0.146	 -0.522	  0.131	 -0.335	  9.862	 -0.004	  0.004	  0.007	 26.000	 101.171	  0.053
88278	  0.163	 -0.149	 -0.524	  0.109	 -0.360	  9.860	 -0.003	  0.003	  0.003	 25.900	 101.167	  0.396
88328	  0.162	 -0.146	 -0.525	  0.122	 -0.355	  9.846	 -0.003	  0.003	  0.003	 26.000	 101.167	  0.396
88378	  0.163	 -0.148	 -0.523	  0.117	 -0.328	  9.920	 -0.001	  0.002	  0.008	 26.000	 101.182	 -0.891
88428	  0.163	 -0.146	 -0.522	  0.121	 -0.296	  9.913	 -0.002	  0.001	  0.007	 25.900	 101.171	  0.053
88478	  0.164	 -0.148	 -0.522	  0.175	 -0.315	  9.844	 -0.002	  0.004	  0.008	 26.000	 101.171	  0.053
88528	  0.165	 -0.151	 -0.522	  0.065	 -0.284	  9.872	 -0.004	  0.003	  0.003	 26.000	 101.182	 -0.891
88578	  0.164	 -0.145	 -0.520	  0.263	 -0.316	  9.884	 -0.005	  0.007	  0.000	 26.000	 101.171	  0.053
88628	  0.164	 -0.148	 -0.523	 -0.015	 -0.333	  9.885	 -0.006	  0.006	  0.006	 26.000	 101.182	 -0.891
88678	  0.164	 -0.141	 -0.522	  0.182	 -0.288	  9.892	 -0.005	  0.006	  0.006	 26.000	 101.171	  0.053
88728	  0.164	 -0.146	 -0.520	  0.054	 -0.409	  9.864	 -0.005	  0.006	 -0.015	 26.000	 101.171	  0.053
88778	  0.164	 -0.146	 -0.521	  0.036	 -0.315	  9.879	 -0.004	  0.004	  0.017	 26.000	 101.182	 -0.891
88828	  0.164	 -0.152	 -0.524	  0.101	 -0.343	  9.886	 -0.001	  0.001	 -0.003	 26.000	 101.171	  0.053
88878	  0.164	 -0.145	 -0.523	  0.100	 -0.373	  9.874	 -0.002	 -0.001	  0.001	 26.000	 101.171	  0.053
88928	  0.163	 -0.147	 -0.522	  0.151	 -0.327	  9.892	 -0.002	  0.000	  0.015	 26.000	 101.175	 -0.291
88978	  0.163	 -0.148	 -0.523	  0.087	 -0.243	  9.847	 -0.001	  0.001	  0.010	 26.000	 101.171	  0.053
89028	  0.163	 -0.148	 -0.525	  0.169	 -0.332	  9.880	 -0.002	 -0.000	  0.007	 26.000	 101.175	 -0.291
89078	  0.161	 -0.148	 -0.524	  0.171	 -0.281	  9.847	 -0.004	  0.003	  0.002	 26.000	 101.171	  0.053
89128	  0.163	 -0.148	 -0.522	  0.116	 -0.320	  9.863	 -0.005	  0.004	  0.010	 26.000	 101.171	  0.053
89178	  0.164	 -0.149	 -0.521	  0.164	 -0.291	  9.889	 -0.005	  0.006	  0.001	 26.000	 101.171	  0.053
89228	  0.163	 -0.145	 -0.525	  0.057	 -0.351	  9.881	 -0.006	  0.005	  0.001	 26.000	 101.171	  0.053
89278	  0.165	 -0.149	 -0.521	  0.107	 -0.324	  9.864	 -0.004	  0.005	  0.003	 26.000	 101.182	 -0.891
89328	  0.163	 -0.153	 -0.523	  0.081	 -0.360	  9.882	 -0.003	  0.004	  0.001	 26.000	 101.182	 -0.891
89378	  0.166	 -0.152	 -0.522	  0.093	 -0.362	  9.858	 -0.002	  0.002	  0.006	 26.000	 101.171	  0.053
89428	  0.162	 -0.151	 -0.523	  0.122	 -0.325	  9.875	 -0.001	  0.001	  0.005	 26.000	 101.171	  0.053
89478	  0.164	 -0.147	 -0.522	  0.057	 -0.324	  9.876	 -0.003	  0.000	  0.006	 26.000	 101.171	  0.053
89528	  0.164	 -0.143	 -0.524	  0.184	 -0.308	  9.909	 -0.002	  0.001	  0.009	 26.000	 101.171	  0.053
89578	  0.163	 -0.149	 -0.520	  0.122	 -0.312	  9.850	 -0.003	  0.002	  0.002	 26.000	 101.171	  0.053
89628	  0.165	 -0.149	 -0.531	  0.166	 -0.284	  9.885	 -0.005	  0.004	  0.008	 26.000	 101.171	  0.053
89678	  0.163	 -0.149	 -0.521	  0.155	 -0.318	  9.900	 -0.004	  0.006	  0.002	 26.000	 101.160	  0.996
89728	  0.164	 -0.151	 -0.531	  0.133	 -0.314	  9.918	 -0.005	  0.008	  0.006	 26.000	 101.171	  0.053
89778	  0.163	 -0.153	 -0.524	  0.100	 -0.360	  9.868	 -0.004	  0.008	 -0.002	 26.000	 101.160	  0.996
89828	  0.165	 -0.148	 -0.522	  0.074	 -0.330	  9.808	 -0.006	  0.007	  0.005	 26.000	 101.171	  0.053
89878	  0.167	 -0.136	 -0.521	  0.061	 -0.330	  9.881	 -0.004	  0.005	  0.002	 26.000	 101.160	  0.996
89928	  0.165	 -0.149	 -0.520	  0.051	 -0.313	  9.881	 -0.003	  0.003	  0.005	 26.000	 101.187	 -1.319
89978	  0.166	 -0.148	 -0.522	  0.073	 -0.359	  9.908	 -0.002	 -0.000	  0.003	 26.000	 101.171	  0.053
90028	  0.167	 -0.138	 -0.522	  0.085	 -0.330	  9.845	  0.000	 -0.002	  0.006	 26.000	 101.160	  0.996
90078	  0.165	 -0.150	 -0.524	  0.099	 -0.302	  9.907	 -0.002	 -0.003	  0.010	 26.000	 101.187	 -1.319
90128	  0.163	 -0.148	 -0.526	  0.138	 -0.292	  9.833	 -0.003	 -0.001	  0.009	 26.000	 101.175	 -0.291
90178	  0.163	 -0.150	 -0.523	  0.212	 -0.381	  9.852	 -0.003	  0.001	  0.003	 26.000	 101.175	 -0.291
90228	  0.166	 -0.153	 -0.525	  0.170	 -0.334	  9.879	 -0.003	  0.003	  0.004	 26.000	 101.175	 -0.291
90278	  0.164	 -0.148	 -0.523	  0.125	 -0.298	  9.879	 -0.004	  0.006	  0.006	 26.000	 101.164	  0.653
90328	  0.163	 -0.149	 -0.522	  0.151	 -0.316	  9.856	 -0.005	  0.007	  0.003	 26.000	 101.164	  0.653
90378	  0.163	 -0.150	 -0.526	  0.090	 -0.321	  9.850	 -0.005	  0.007	  0.003	 26.000	 101.175	 -0.291
90428	  0.164	 -0.148	 -0.521	  0.073	 -0.327	  9.884	 -0.005	  0.006	  0.003	 26.000	 101.175	 -0.291
90478	  0.165	 -0.151	 -0.522	  0.084	 -0.327	  9.842	 -0.004	  0.003	  0.003	 26.000	 101.171	  0.053
90528	  0.163	 -0.147	 -0.525	  0.063	 -0.361	  9.887	 -0.003	  0.001	  0.004	 26.000	 101.171	  0.053
90578	  0.164	 -0.152	 -0.523	  0.058	 -0.330	  9.851	 -0.003	  0.000	  0.008	 26.000	 101.164	  0.653
90628	  0.163	 -0.150	 -0.523	  0.060	 -0.328	  9.870	 -0.002	 -0.002	  0.006	 26.000	 101.175	 -0.291
90678	  0.163	 -0.148	 -0.527	  0.122	 -0.327	  9.855	 -0.002	 -0.002	  0.007	 26.000	 101.164	  0.653
90728	  0.163	 -0.148	 -0.521	  0.119	 -0.350	  9.859	 -0.002	 -0.000	  0.003	 26.000	 101.171	  0.053
90778	  0.164	 -0.148	 -0.523	  0.163	 -0.313	  9.900	 -0.003	  0.002	  0.006	 26.000	 101.171	  0.053
90828	  0.166	 -0.144	 -0.523	  0.143	 -0.318	  9.852	 -0.003	  0.006	  0.004	 26.000	 101.164	  0.653
90878	  0.163	 -0.143	 -0.522	  0.129	 -0.324	  9.874	 -0.004	  0.006	  0.003	 26.000	 101.175	 -0.291
90928	  0.164	 -0.149	 -0.529	  0.095	 -0.312	  9.865	 -0.004	  0.007	  0.002	 26.000	 101.175	 -0.291
90978	  0.164	 -0.150	 -0.522	  0.090	 -0.338	  9.888	 -0.004	  0.007	  0.003	 26.000	 101.175	 -0.291
91028	  0.164	 -0.151	 -0.521	  0.104	 -0.334	  9.872	 -0.004	  0.002	  0.005	 26.000	 101.160	  0.996
91078	  0.164	 -0.138	 -0.524	  0.085	 -0.343	  9.902	 -0.003	  0.001	  0.002	 26.000	 101.175	 -0.291
91128	  0.163	 -0.152	 -0.527	  0.085	 -0.342	  9.872	 -0.003	  0.001	  0.006	 26.000	 101.164	  0.653
91178	  0.164	 -0.145	 -0.521	  0.083	 -0.340	  9.897	 -0.001	 -0.000	  0.006	 26.000	 101.171	  0.053
91228	  0.163	 -0.153	 -0.522	  0.100	 -0.330	  9.869	 -0.002	 -0.001	  0.007	 26.000	 101.164	  0.653
91278	  0.164	 -0.148	 -0.526	  0.160	 -0.326	  9.860	 -0.002	 -0.000	  0.005	 26.000	 101.175	 -0.291
91327	  0.163	 -0.150	 -0.527	  0.156	 -0.335	  9.882	 -0.003	  0.003	  0.006	 26.000	 101.175	 -0.291
91377	  0.161	 -0.148	 -0.524	  0.170	 -0.323	  9.894	 -0.003	  0.004	  0.005	 26.000	 101.164	  0.653
91427	  0.163	 -0.146	 -0.522	  0.148	 -0.307	  9.858	 -0.003	  0.006	  0.003	 26.000	 101.175	 -0.291
91477	  0.163	 -0.139	 -0.523	  0.083	 -0.333	  9.861	 -0.005	  0.005	  0.003	 26.000	 101.175	 -0.291
91527	  0.166	 -0.144	 -0.520	  0.091	 -0.293	  9.897	 -0.005	  0.005	  0.003	 26.000	 101.175	 -0.291
91577	  0.163	 -0.148	 -0.529	  0.107	 -0.345	  9.830	 -0.005	  0.007	  0.004	 26.000	 101.175	 -0.291
91628	  0.163	 -0.150	 -0.522	  0.015	 -0.339	  9.863	 -0.005	  0.001	  0.004	 26.000	 101.175	 -0.291
91677	  0.163	 -0.149	 -0.528	  0.128	 -0.349	  9.894	 -0.002	  0.002	  0.005	 26.000	 101.175	 -0.291
91727	  0.163	 -0.147	 -0.522	  0.064	 -0.368	  9.878	 -0.003	  0.001	  0.004	 26.000	 101.175	 -0.291
91777	  0.162	 -0.151	 -0.526	  0.122	 -0.331	  9.891	 -0.003	 -0.001	  0.008	 26.000	 101.175	 -0.291
91827	  0.165	 -0.149	 -0.526	  0.126	 -0.335	  9.874	 -0.001	  0.002	  0.002	 26.000	 101.164	  0.653
91877	  0.165	 -0.152	 -0.524	  0.154	 -0.313	  9.885	 -0.003	 -0.000	  0.007	 26.000	 101.175	 -0.291
91927	  0.164	 -0.142	 -0.522	  0.190	 -0.438	  9.780	 -0.003	  0.004	 -0.004	 26.000	 101.175	 -0.291
91978	  0.164	 -0.142	 -0.520	  0.167	 -0.273	  9.870	 -0.005	  0.003	  0.011	 26.000	 101.175	 -0.291
92027	  0.164	 -0.151	 -0.526	  0.071	 -0.308	  9.903	 -0.003	  0.005	 -0.002	 26.000	 101.164	  0.653
92078	  0.163	 -0.147	 -0.522	  0.100	 -0.375	  9.869	 -0.003	  0.003	  0.002	 26.000	 101.175	 -0.291
92128	  0.163	 -0.147	 -0.524	  0.147	 -0.314	  9.863	 -0.004	  0.005	  0.009	 26.000	 101.164	  0.653
92178	  0.163	 -0.148	 -0.520	 -0.003	 -0.320	  9.859	 -0.004	  0.003	  0.004	 26.000	 101.175	 -0.291
92229	  0.163	 -0.147	 -0.525	  0.160	 -0.342	  9.863	 -0.003	  0.002	  0.007	 26.000	 101.180	 -0.719
92278	  0.164	 -0.146	 -0.523	  0.091	 -0.381	  9.851	 -0.003	  0.002	  0.003	 26.000	 101.175	 -0.291
92328	  0.163	 -0.150	 -0.521	  0.109	 -0.283	  9.878	 -0.002	  0.001	  0.012	 26.000	 101.164	  0.653
92378	  0.165	 -0.137	 -0.522	  0.100	 -0.339	  9.855	 -0.004	  0.002	  0.001	 26.000	 101.164	  0.653
92428	  0.163	 -0.147	 -0.522	  0.111	 -0.330	  9.847	 -0.004	  0.003	  0.004	 26.000	 101.164	  0.653
92478	  0.164	 -0.147	 -0.522	  0.165	 -0.330	  9.844	 -0.003	  0.005	  0.004	 26.000	 101.171	  0.053
92528	  0.164	 -0.152	 -0.521	  0.049	 -0.324	  9.868	 -0.004	  0.005	  0.005	 26.000	 101.164	  0.653
92578	  0.163	 -0.149	 -0.530	  0.156	 -0.304	  9.868	 -0.005	  0.003	  0.004	 26.000	 101.175	 -0.291
92628	  0.163	 -0.151	 -0.518	  0.054	 -0.355	  9.884	 -0.003	  0.003	  0.001	 26.000	 101.191	 -1.662
92678	  0.163	 -0.150	 -0.522	  0.102	 -0.338	  9.882	 -0.004	  0.003	  0.008	 26.000	 101.169	  0.224
92728	  0.165	 -0.147	 -0.523	  0.083	 -0.351	  9.881	 -0.002	  0.002	  0.003	 26.000	 101.164	  0.653
92778	  0.161	 -0.147	 -0.528	  0.098	 -0.334	  9.864	 -0.002	  0.002	  0.005	 26.000	 101.175	 -0.291
92828	  0.163	 -0.151	 -0.526	  0.172	 -0.366	  9.882	 -0.002	  0.001	  0.002	 26.000	 101.175	 -0.291
92878	  0.163	 -0.148	 -0.526	  0.095	 -0.319	  9.868	 -0.004	  0.003	  0.006	 26.000	 101.180	 -0.719
92928	  0.164	 -0.151	 -0.520	  0.148	 -0.320	  9.878	 -0.003	  0.002	  0.006	 26.000	 101.175	 -0.291
92978	  0.163	 -0.149	 -0.520	  0.099	 -0.317	  9.868	 -0.005	  0.002	  0.003	 26.000	 101.180	 -0.719
93028	  0.164	 -0.146	 -0.521	  0.150	 -0.354	  9.902	 -0.005	  0.005	  0.006	 26.000	 101.164	  0.653
93078	  0.165	 -0.140	 -0.523	  0.122	 -0.353	  9.869	 -0.004	  0.005	  0.003	 26.000	 101.169	  0.224
93128	  0.162	 -0.151	 -0.524	  0.125	 -0.342	  9.874	 -0.005	  0.004	  0.005	 26.000	 101.175	 -0.291
93178	  0.163	 -0.150	 -0.522	  0.091	 -0.342	  9.865	 -0.003	  0.004	  0.002	 26.000	 101.169	  0.224
93228	  0.164	 -0.149	 -0.526	  0.091	 -0.341	  9.880	 -0.004	  0.004	  0.007	 26.000	 101.169	  0.224
93278	  0.162	 -0.146	 -0.522	  0.087	 -0.327	  9.889	 -0.003	  0.003	  0.005	 26.000	 101.164	  0.653
93328	  0.164	 -0.141	 -0.522	  0.067	 -0.327	  9.894	 -0.001	  0.002	  0.004	 26.000	 101.164	  0.653
93378	  0.165	 -0.150	 -0.524	  0.122	 -0.315	  9.870	 -0.002	  0.001	  0.004	 26.000	 101.169	  0.224
93428	  0.163	 -0.148	 -0.524	  0.121	 -0.288	  9.881	 -0.003	  0.001	  0.005	 26.000	 101.164	  0.653
93478	  0.165	 -0.150	 -0.519	  0.147	 -0.330	  9.890	 -0.003	  0.002	  0.006	 26.000	 101.164	  0.653
93528	  0.163	 -0.147	 -0.524	  0.130	 -0.345	  9.887	 -0.003	  0.001	  0.003	 26.000	 101.164	  0.653
93578	  0.163	 -0.148	 -0.522	  0.164	 -0.309	  9.861	 -0.005	  0.003	  0.006	 26.000	 101.169	  0.224
93628	  0.163	 -0.149	 -0.522	  0.120	 -0.299	  9.906	 -0.004	  0.003	  0.004	 26.000	 101.169	  0.224
93678	  0.163	 -0.147	 -0.528	  0.127	 -0.330	  9.886	 -0.004	  0.004	  0.005	 26.000	 101.164	  0.653
93728	  0.163	 -0.149	 -0.523	  0.133	 -0.343	  9.836	 -0.003	  0.005	  0.003	 26.000	 101.180	 -0.719
93778	  0.164	 -0.146	 -0.523	  0.116	 -0.314	  9.874	 -0.003	  0.004	  0.004	 26.000	 101.164	  0.653
93828	  0.163	 -0.151	 -0.521	  0.113	 -0.353	  9.852	 -0.004	  0.003	  0.005	 26.000	 101.169	  0.224
93878	  0.165	 -0.140	 -0.523	  0.091	 -0.328	  9.887	 -0.004	  0.002	  0.003	 26.000	 101.169	  0.224
93928	  0.161	 -0.151	 -0.521	  0.096	 -0.323	  9.873	 -0.003	  0.001	  0.006	 26.000	 101.169	  0.224
93978	  0.163	 -0.150	 -0.524	  0.080	 -0.323	  9.857	 -0.003	  0.001	  0.004	 26.000	 101.180	 -0.719
94028	  0.163	 -0.150	 -0.524	  0.114	 -0.333	  9.861	 -0.004	  0.001	  0.006	 26.000	 101.180	 -0.719
94078	  0.162	 -0.148	 -0.522	  0.125	 -0.348	  9.896	 -0.004	  0.002	  0.004	 26.000	 101.180	 -0.719
94128	  0.162	 -0.151	 -0.525	  0.141	 -0.329	  9.863	 -0.003	  0.003	  0.006	 26.000	 101.180	 -0.719
94178	  0.163	 -0.152	 -0.529	  0.116	 -0.320	  9.887	 -0.004	  0.004	  0.005	 26.000	 101.180	 -0.719
94229	  0.165	 -0.150	 -0.521	  0.133	 -0.325	  9.874	 -0.003	  0.005	  0.002	 26.000	 101.169	  0.224
94279	  0.165	 -0.149	 -0.522	  0.131	 -0.336	  9.902	 -0.004	  0.004	  0.004	 26.000	 101.169	  0.224
94329	  0.164	 -0.147	 -0.526	  0.085	 -0.302	  9.889	 -0.004	  0.004	  0.004	 26.000	 101.164	  0.653
94379	  0.165	 -0.149	 -0.522	  0.088	 -0.320	  9.846	 -0.004	  0.005	  0.004	 26.000	 101.180	 -0.719
94429	  0.164	 -0.145	 -0.523	  0.077	 -0.346	  9.874	 -0.003	  0.003	  0.003	 26.000	 101.164	  0.653
94479	  0.164	 -0.150	 -0.521	  0.089	 -0.303	  9.881	 -0.002	 -0.000	  0.005	 26.000	 101.164	  0.653
94529	  0.163	 -0.151	 -0.524	  0.098	 -0.347	  9.879	 -0.003	  0.001	  0.006	 26.000	 101.180	 -0.719
94578	  0.162	 -0.151	 -0.524	  0.124	 -0.314	  9.881	 -0.002	  0.002	  0.007	 26.000	 101.175	 -0.291
94628	  0.162	 -0.150	 -0.522	  0.124	 -0.331	  9.853	 -0.003	  0.002	  0.005	 26.000	 101.164	  0.653
94678	  0.163	 -0.150	 -0.523	  0.039	 -0.333	  9.813	 -0.005	  0.001	  0.006	 26.000	 101.180	 -0.719
94728	  0.163	 -0.148	 -0.523	  0.085	 -0.326	  9.860	 -0.004	  0.005	  0.002	 26.000	 101.180	 -0.719
94778	  0.163	 -0.148	 -0.520	  0.164	 -0.378	  9.827	 -0.003	  0.004	  0.003	 26.000	 101.169	  0.224
94828	  0.168	 -0.152	 -0.531	  0.043	 -0.257	  9.863	 -0.004	  0.006	  0.005	 26.000	 101.169	  0.224
94878	  0.164	 -0.153	 -0.520	  0.033	 -0.288	  9.917	 -0.005	  0.006	  0.003	 26.000	 101.180	 -0.719
94928	  0.165	 -0.139	 -0.521	  0.129	 -0.375	  9.911	 -0.002	  0.003	  0.003	 26.000	 101.164	  0.653
94978	  0.166	 -0.146	 -0.525	  0.094	 -0.356	  9.835	 -0.003	  0.002	  0.005	 26.000	 101.184	 -1.062
95028	  0.166	 -0.145	 -0.521	  0.093	 -0.324	  9.845	 -0.002	  0.001	  0.006	 26.000	 101.180	 -0.719
95078	  0.164	 -0.147	 -0.520	  0.087	 -0.306	  9.880	 -0.002	  0.001	  0.004	 26.000	 101.169	  0.224
95128	  0.164	 -0.149	 -0.521	  0.135	 -0.321	  9.854	 -0.004	  0.002	  0.006	 26.000	 101.169	  0.224
95178	  0.163	 -0.149	 -0.522	  0.190	 -0.384	  9.842	 -0.006	  0.003	  0.005	 26.000	 101.180	 -0.719
95228	  0.162	 -0.151	 -0.525	  0.104	 -0.306	  9.833	 -0.006	  0.004	  0.006	 26.000	 101.169	  0.224
95278	  0.163	 -0.151	 -0.524	  0.144	 -0.348	  9.898	 -0.006	  0.004	  0.003	 26.000	 101.180	 -0.719
95328	  0.164	 -0.149	 -0.523	  0.130	 -0.334	  9.863	 -0.005	  0.005	  0.003	 26.000	 101.157	  1.254
95378	  0.164	 -0.146	 -0.526	  0.100	 -0.359	  9.864	 -0.003	  0.004	  0.004	 26.000	 101.157	  1.254
95428	  0.166	 -0.145	 -0.521	  0.103	 -0.325	  9.929	 -0.004	  0.004	  0.005	 26.000	 101.169	  0.224
95478	  0.164	 -0.148	 -0.524	  0.081	 -0.337	  9.876	 -0.004	  0.002	  0.003	 26.000	 101.180	 -0.719
95528	  0.164	 -0.147	 -0.520	  0.157	 -0.352	  9.855	 -0.001	  0.002	  0.004	 26.000	 101.169	  0.224
95578	  0.164	 -0.150	 -0.526	  0.144	 -0.322	  9.807	 -0.001	  0.000	  0.006	 26.000	 101.169	  0.224
95628	  0.164	 -0.148	 -0.524	  0.100	 -0.319	  9.852	 -0.001	  0.000	  0.004	 26.000	 101.169	  0.224
95678	  0.165	 -0.148	 -0.519	  0.097	 -0.278	  9.905	 -0.004	  0.002	  0.004	 26.000	 101.180	 -0.719
95728	  0.165	 -0.141	 -0.522	  0.147	 -0.322	  9.908	 -0.005	  0.002	  0.003	 26.000	 101.180	 -0.719
95778	  0.167	 -0.152	 -0.522	  0.114	 -0.343	  9.838	 -0.004	  0.003	  0.005	 26.000	 101.169	  0.224
95828	  0.163	 -0.150	 -0.524	  0.097	 -0.333	  9.830	 -0.005	  0.004	  0.007	 26.000	 101.157	  1.254
95878	  0.164	 -0.148	 -0.525	  0.127	 -0.361	  9.893	 -0.003	  0.004	  0.002	 26.000	 101.169	  0.224
95928	  0.163	 -0.148	 -0.526	  0.092	 -0.362	  9.901	 -0.003	  0.005	  0.004	 26.000	 101.169	  0.224
95978	  0.166	 -0.151	 -0.529	  0.081	 -0.339	  9.855	 -0.002	  0.004	  0.004	 26.000	 101.173	 -0.118
96028	  0.164	 -0.141	 -0.522	  0.101	 -0.341	  9.877	 -0.002	  0.002	  0.005	 26.000	 101.157	  1.254
96078	  0.163	 -0.149	 -0.523	  0.092	 -0.320	  9.863	 -0.001	  0.001	  0.004	 26.000	 101.169	  0.224
96128	  0.162	 -0.141	 -0.527	  0.095	 -0.316	  9.903	 -0.003	  0.002	  0.006	 26.000	 101.169	  0.224
96178	  0.164	 -0.140	 -0.523	  0.112	 -0.320	  9.881	 -0.004	  0.001	  0.006	 26.000	 101.173	 -0.118
96228	  0.163	 -0.140	 -0.521	  0.131	 -0.347	  9.875	 -0.003	  0.001	  0.004	 26.000	 101.169	  0.224
96278	  0.164	 -0.147	 -0.523	  0.115	 -0.315	  9.892	 -0.005	  0.004	  0.004	 26.000	 101.184	 -1.062
96328	  0.166	 -0.152	 -0.525	  0.136	 -0.310	  9.884	 -0.003	  0.004	  0.005	 26.000	 101.157	  1.254
96378	  0.164	 -0.149	 -0.521	  0.143	 -0.358	  9.873	 -0.004	  0.003	  0.004	 26.000	 101.180	 -0.719
96428	  0.164	 -0.153	 -0.524	  0.093	 -0.319	  9.862	 -0.003	  0.004	  0.004	 26.000	 101.162	  0.824
96478	  0.164	 -0.147	 -0.521	  0.084	 -0.355	  9.883	 -0.002	  0.003	  0.004	 26.000	 101.184	 -1.062
96528	  0.165	 -0.149	 -0.521	  0.104	 -0.331	  9.881	 -0.001	  0.003	  0.005	 26.000	 101.169	  0.224
96578	  0.165	 -0.152	 -0.527	  0.099	 -0.308	  9.857	 -0.002	  0.002	  0.005	 26.000	 101.162	  0.824
96628	  0.165	 -0.142	 -0.524	  0.072	 -0.314	  9.859	 -0.002	  0.002	  0.003	 26.000	 101.169	  0.224
96678	  0.166	 -0.147	 -0.523	  0.115	 -0.321	  9.890	 -0.004	  0.002	  0.005	 26.000	 101.173	 -0.118
96728	  0.165	 -0.148	 -0.527	  0.115	 -0.335	  9.838	 -0.004	  0.002	  0.005	 26.000	 101.173	 -0.118
96778	  0.166	 -0.141	 -0.523	  0.147	 -0.255	  9.894	 -0.004	  0.001	  0.007	 26.000	 101.173	 -0.118
96828	  0.166	 -0.148	 -0.524	  0.066	 -0.340	  9.949	 -0.004	  0.003	  0.000	 26.000	 101.169	  0.224
96878	  0.166	 -0.150	 -0.521	  0.177	 -0.352	  9.861	 -0.003	  0.002	  0.004	 26.000	 101.173	 -0.118
96928	  0.166	 -0.145	 -0.522	  0.160	 -0.368	  9.840	 -0.004	  0.004	  0.009	 26.000	 101.169	  0.224
96978	  0.165	 -0.149	 -0.522	  0.088	 -0.307	  9.857	 -0.004	  0.005	  0.003	 26.000	 101.173	 -0.118
97028	  0.164	 -0.148	 -0.525	  0.082	 -0.345	  9.909	 -0.001	  0.003	  0.002	 26.000	 101.173	 -0.118
97078	  0.165	 -0.152	 -0.521	  0.125	 -0.356	  9.901	 -0.003	  0.003	  0.006	 26.000	 101.162	  0.824
97128	  0.164	 -0.156	 -0.522	  0.107	 -0.313	  9.868	 -0.003	  0.002	  0.006	 26.000	 101.173	 -0.118
97178	  0.164	 -0.146	 -0.525	  0.092	 -0.295	  9.881	 -0.003	  0.001	  0.004	 26.000	 101.173	 -0.118
97228	  0.164	 -0.151	 -0.521	  0.103	 -0.317	  9.882	 -0.002	  0.000	  0.006	 26.000	 101.184	 -1.062
97278	  0.166	 -0.143	 -0.523	  0.097	 -0.341	  9.904	 -0.004	  0.001	  0.008	 26.000	 101.173	 -0.118
97328	  0.165	 -0.149	 -0.524	  0.133	 -0.315	  9.854	 -0.005	  0.002	  0.005	 26.000	 101.173	 -0.118
97378	  0.165	 -0.151	 -0.526	  0.126	 -0.350	  9.872	 -0.003	  0.002	  0.001	 26.000	 101.173	 -0.118
97428	  0.164	 -0.155	 -0.530	  0.126	 -0.342	  9.873	 -0.004	  0.004	  0.005	 26.000	 101.177	 -0.462
97478	  0.164	 -0.150	 -0.525	  0.135	 -0.340	  9.915	 -0.003	  0.004	  0.005	 26.000	 101.173	 -0.118
97528	  0.165	 -0.139	 -0.520	  0.078	 -0.329	  9.853	 -0.004	  0.006	  0.003	 26.000	 101.173	 -0.118
97578	  0.166	 -0.140	 -0.522	  0.095	 -0.335	  9.889	 -0.001	  0.003	  0.002	 26.000	 101.166	  0.482
97628	  0.166	 -0.146	 -0.522	  0.063	 -0.344	  9.878	 -0.002	  0.003	  0.006	 26.000	 101.184	 -1.062
97678	  0.165	 -0.148	 -0.523	  0.105	 -0.308	  9.880	 -0.002	  0.001	  0.006	 26.000	 101.162	  0.824
97729	  0.164	 -0.153	 -0.519	  0.079	 -0.339	  9.876	 -0.003	  0.001	  0.004	 26.000	 101.173	 -0.118
97778	  0.164	 -0.149	 -0.524	  0.124	 -0.335	  9.867	 -0.004	  0.000	  0.005	 26.000	 101.162	  0.824
97829	  0.163	 -0.147	 -0.525	  0.137	 -0.314	  9.866	 -0.002	  0.002	  0.006	 26.000	 101.162	  0.824
97879	  0.164	 -0.143	 -0.522	  0.134	 -0.318	  9.874	 -0.003	  0.003	  0.003	 26.000	 101.162	  0.824
97929	  0.164	 -0.148	 -0.524	  0.140	 -0.321	  9.866	 -0.004	  0.004	  0.002	 26.000	 101.173	 -0.118
97979	  0.163	 -0.151	 -0.525	  0.099	 -0.342	  9.881	 -0.004	  0.005	  0.003	 26.000	 101.162	  0.824
98029	  0.165	 -0.155	 -0.521	  0.140	 -0.323	  9.894	 -0.004	  0.004	  0.005	 26.000	 101.173	 -0.118
98079	  0.163	 -0.151	 -0.531	  0.093	 -0.355	  9.868	 -0.004	  0.006	  0.003	 26.000	 101.166	  0.482
98129	  0.165	 -0.150	 -0.522	  0.098	 -0.329	  9.897	 -0.003	  0.005	  0.004	 26.000	 101.173	 -0.118
98179	  0.163	 -0.150	 -0.521	  0.061	 -0.327	  9.838	 -0.002	  0.003	  0.006	 26.000	 101.173	 -0.118
98229	  0.163	 -0.151	 -0.524	  0.243	 -0.323	  9.741	 -0.004	 -0.000	  0.007	 26.000	 101.166	  0.482
98279	  0.165	 -0.152	 -0.521	  0.081	 -0.330	  9.988	 -0.005	  0.001	  0.007	 26.000	 101.162	  0.824
98329	  0.167	 -0.151	 -0.523	  0.016	 -0.207	  9.935	 -0.004	  0.002	  0.013	 26.000	 101.173	 -0.118
98379	  0.164	 -0.148	 -0.519	  0.095	 -0.399	  9.802	 -0.004	  0.001	  0.003	 26.000	 101.177	 -0.462
98429	  0.164	 -0.153	 -0.522	  0.250	 -0.372	  9.852	 -0.003	  0.003	  0.002	 26.000	 101.173	 -0.118
98479	  0.165	 -0.149	 -0.521	  0.166	 -0.358	  9.949	 -0.004	  0.003	  0.003	 26.000	 101.162	  0.824
98529	  0.162	 -0.152	 -0.522	  0.090	 -0.302	  9.944	 -0.003	  0.003	  0.007	 26.000	 101.173	 -0.118
98579	  0.166	 -0.153	 -0.523	  0.256	 -0.343	  9.738	 -0.002	  0.005	  0.002	 26.000	 101.173	 -0.118
98629	  0.163	 -0.149	 -0.522	 -0.098	 -0.529	 10.047	 -0.001	  0.005	 -0.000	 26.000	 101.173	 -0.118
98679	  0.164	 -0.144	 -0.520	  0.185	 -0.424	  9.804	 -0.004	  0.004	  0.005	 26.000	 101.177	 -0.462
98729	  0.163	 -0.152	 -0.532	  0.030	 -0.134	  9.822	 -0.003	  0.001	  0.007	 26.000	 101.177	 -0.462
98779	  0.166	 -0.147	 -0.519	  0.041	 -0.399	  9.885	 -0.003	 -0.000	  0.001	 26.000	 101.188	 -1.406
