Time	 MagX	 MagY	 MagZ	 AccelX	 AccelY	 AccelZ	 Yaw	 Pitch	 Roll	 Temperature	 Pressure	 Altitude
28246	  0.078	  0.184	  0.388	  0.292	 -0.227	 -9.816	 -0.008	  0.006	  0.018	 19.400	 100.019	 -99999.000
28296	  0.076	  0.184	  0.390	  0.537	 -0.206	 -9.754	 -0.011	  0.007	  0.008	 19.400	 100.035	 -99999.000
28346	  0.077	  0.192	  0.389	  0.528	 -0.110	 -9.770	 -0.011	  0.002	 -0.028	 19.400	 100.024	 -99999.000
28396	  0.076	  0.187	  0.387	  0.419	 -0.042	 -9.770	 -0.009	  0.003	  0.029	 19.400	 100.030	 -99999.000
28446	  0.076	  0.184	  0.388	  0.573	 -0.117	 -9.754	 -0.003	  0.001	  0.003	 19.400	 100.035	 -99999.000
28496	  0.076	  0.182	  0.382	  0.546	 -0.138	 -9.753	  0.003	 -0.002	 -0.012	 19.400	 100.030	 -99999.000
28546	  0.077	  0.188	  0.390	  0.318	 -0.014	 -9.761	  0.003	  0.002	  0.019	 19.400	 100.030	 -99999.000
28596	  0.078	  0.184	  0.390	  0.470	 -0.175	 -9.758	  0.007	  0.002	  0.020	 19.400	 100.030	 -99999.000
28646	  0.077	  0.185	  0.387	  0.570	 -0.396	 -9.762	  0.004	  0.002	  0.005	 19.400	 100.035	 -99999.000
28696	  0.077	  0.187	  0.389	  0.326	 -0.149	 -9.808	 -0.001	  0.003	 -0.003	 19.400	 100.024	 -99999.000
28746	  0.077	  0.184	  0.388	  0.498	 -0.294	 -9.788	 -0.004	  0.005	  0.005	 19.400	 100.030	 -99999.000
28796	  0.076	  0.186	  0.391	  0.543	 -0.326	 -9.818	 -0.011	  0.002	  0.001	 19.400	 100.030	 -99999.000
28846	  0.077	  0.187	  0.388	  0.435	 -0.180	 -9.768	 -0.012	  0.001	 -0.038	 19.400	 100.035	 -99999.000
28896	  0.076	  0.185	  0.392	  0.449	 -0.029	 -9.771	 -0.013	  0.002	  0.041	 19.400	 100.035	 -99999.000
28946	  0.077	  0.184	  0.387	  0.541	 -0.177	 -9.766	 -0.008	  0.001	  0.012	 19.400	 100.035	 -99999.000
28996	  0.077	  0.186	  0.389	  0.502	 -0.077	 -9.772	 -0.004	  0.001	 -0.035	 19.400	 100.024	 -99999.000
29046	  0.077	  0.187	  0.387	  0.293	  0.025	 -9.828	  0.001	  0.003	  0.027	 19.400	 100.035	 -99999.000
29096	  0.077	  0.190	  0.389	  0.502	 -0.224	 -9.817	  0.003	  0.007	  0.021	 19.400	 100.019	 -99999.000
29146	  0.078	  0.185	  0.386	  0.642	 -0.294	 -9.779	  0.000	  0.005	 -0.003	 19.400	 100.024	 -99999.000
29196	  0.075	  0.186	  0.394	  0.363	 -0.037	 -9.818	  0.001	  0.003	  0.001	 19.400	 100.035	 -99999.000
29246	  0.080	  0.183	  0.389	  0.470	 -0.300	 -9.763	 -0.002	  0.003	  0.031	 19.400	 100.035	 -99999.000
29296	  0.078	  0.187	  0.386	  0.759	 -0.325	 -9.759	 -0.005	 -0.000	  0.012	 19.400	 100.024	 -99999.000
29346	  0.078	  0.186	  0.389	  0.391	 -0.099	 -9.795	 -0.003	 -0.003	 -0.036	 19.400	 100.019	 -99999.000
29396	  0.078	  0.191	  0.390	  0.380	 -0.145	 -9.795	 -0.006	  0.001	  0.015	 19.400	 100.039	 -99999.000
29446	  0.079	  0.188	  0.391	  0.542	 -0.136	 -9.764	 -0.004	 -0.002	 -0.002	 19.400	 100.019	 -99999.000
29496	  0.078	  0.186	  0.389	  0.413	 -0.289	 -9.785	 -0.004	 -0.000	 -0.033	 19.400	 100.024	 -99999.000
29546	  0.076	  0.187	  0.388	  0.296	  0.040	 -9.788	 -0.005	  0.004	  0.034	 19.400	 100.035	 -99999.000
29596	  0.075	  0.188	  0.388	  0.539	 -0.202	 -9.771	 -0.004	  0.003	  0.018	 19.400	 100.035	 -99999.000
29646	  0.077	  0.187	  0.390	  0.489	 -0.240	 -9.809	 -0.004	  0.006	 -0.020	 19.400	 100.019	 -99999.000
29696	  0.076	  0.185	  0.387	  0.369	 -0.039	 -9.749	 -0.008	  0.008	  0.035	 19.400	 100.019	 -99999.000
29746	  0.077	  0.183	  0.386	  0.629	 -0.075	 -9.766	 -0.003	  0.005	  0.017	 19.400	 100.035	 -99999.000
29796	  0.077	  0.193	  0.387	  0.624	 -0.338	 -9.744	 -0.001	  0.001	 -0.011	 19.400	 100.030	 -99999.000
29846	  0.077	  0.183	  0.391	  0.392	 -0.016	 -9.784	 -0.003	  0.000	 -0.012	 19.400	 100.024	 -99999.000
29896	  0.078	  0.185	  0.390	  0.548	 -0.165	 -9.779	  0.001	 -0.001	  0.011	 19.400	 100.035	 -99999.000
29946	  0.080	  0.185	  0.391	  0.564	 -0.431	 -9.824	 -0.004	 -0.004	  0.003	 19.400	 100.024	 -99999.000
29996	  0.079	  0.186	  0.393	  0.275	 -0.041	 -9.806	 -0.007	  0.001	 -0.023	 19.400	 100.035	 -99999.000
30046	  0.080	  0.187	  0.391	  0.454	 -0.185	 -9.772	 -0.008	  0.005	  0.021	 19.400	 100.024	 -99999.000
30096	  0.078	  0.187	  0.391	  0.519	 -0.271	 -9.730	 -0.009	  0.006	  0.003	 19.400	 100.024	 -99999.000
30146	  0.078	  0.186	  0.388	  0.459	 -0.002	 -9.772	 -0.006	  0.005	 -0.026	 19.400	 100.035	 -99999.000
30196	  0.077	  0.192	  0.391	  0.418	  0.177	 -9.775	 -0.002	  0.004	  0.037	 19.400	 100.030	 -99999.000
30246	  0.075	  0.184	  0.390	  0.625	 -0.305	 -9.711	  0.003	  0.004	  0.015	 19.400	 100.035	 -99999.000
30296	  0.077	  0.185	  0.390	  0.536	 -0.216	 -9.769	  0.002	  0.002	 -0.003	 19.400	 100.024	 -99999.000
30346	  0.076	  0.187	  0.390	  0.286	  0.002	 -9.763	  0.003	  0.002	 -0.009	 19.400	 100.035	 -99999.000
30396	  0.077	  0.184	  0.393	  0.512	 -0.370	 -9.820	 -0.000	  0.002	  0.045	 19.400	 100.024	 -99999.000
30446	  0.078	  0.184	  0.386	  0.562	 -0.308	 -9.784	 -0.005	  0.002	 -0.011	 19.400	 100.019	 -99999.000
30496	  0.078	  0.185	  0.393	  0.443	 -0.133	 -9.804	 -0.005	  0.003	 -0.026	 19.400	 100.035	 -99999.000
30546	  0.077	  0.185	  0.393	  0.343	 -0.054	 -9.792	 -0.006	  0.003	  0.036	 19.400	 100.024	 -99999.000
30596	  0.078	  0.186	  0.387	  0.625	 -0.343	 -9.752	 -0.005	  0.004	  0.006	 19.400	 100.035	 -99999.000
30646	  0.081	  0.184	  0.387	  0.540	 -0.046	 -9.726	 -0.004	  0.001	 -0.014	 19.400	 100.024	 -99999.000
30696	  0.077	  0.184	  0.393	  0.229	 -0.064	 -9.821	 -0.000	  0.002	  0.011	 19.400	 100.035	 -99999.000
30746	  0.078	  0.188	  0.386	  0.613	 -0.268	 -9.759	 -0.002	  0.004	  0.021	 19.400	 100.024	 -99999.000
30796	  0.077	  0.187	  0.388	  0.569	 -0.262	 -9.768	 -0.004	  0.000	 -0.017	 19.400	 100.024	 -99999.000
30846	  0.076	  0.190	  0.391	  0.265	 -0.092	 -9.829	 -0.005	  0.002	 -0.016	 19.400	 100.030	 -99999.000
30896	  0.077	  0.185	  0.387	  0.525	 -0.235	 -9.755	 -0.009	  0.004	  0.035	 19.400	 100.024	 -99999.000
30946	  0.079	  0.184	  0.390	  0.525	 -0.235	 -9.762	 -0.010	  0.002	 -0.006	 19.400	 100.024	 -99999.000
30996	  0.078	  0.187	  0.389	  0.418	 -0.032	 -9.742	 -0.008	  0.003	 -0.019	 19.400	 100.035	 -99999.000
31046	  0.076	  0.185	  0.391	  0.437	 -0.032	 -9.771	 -0.006	  0.003	  0.035	 19.400	 100.024	 -99999.000
31096	  0.076	  0.184	  0.386	  0.622	 -0.143	 -9.717	  0.001	  0.002	 -0.010	 19.400	 100.024	 -99999.000
31146	  0.078	  0.184	  0.387	  0.479	 -0.006	 -9.739	  0.007	 -0.001	  0.003	 19.400	 100.039	 -99999.000
31196	  0.078	  0.184	  0.385	  0.323	 -0.115	 -9.814	  0.008	  0.001	  0.021	 19.400	 100.030	 -99999.000
31246	  0.076	  0.187	  0.388	  0.620	 -0.294	 -9.821	  0.007	  0.000	  0.009	 19.400	 100.035	 -99999.000
31296	  0.075	  0.185	  0.388	  0.413	 -0.290	 -9.786	  0.002	  0.001	  0.005	 19.400	 100.035	 -99999.000
31346	  0.079	  0.185	  0.389	  0.342	 -0.262	 -9.843	 -0.005	  0.004	  0.002	 19.400	 100.035	 -99999.000
31396	  0.078	  0.185	  0.391	  0.583	 -0.286	 -9.769	 -0.012	  0.003	  0.012	 19.400	 100.024	 -99999.000
31446	  0.078	  0.185	  0.387	  0.441	 -0.191	 -9.795	 -0.012	  0.004	 -0.007	 19.400	 100.024	 -99999.000
31496	  0.076	  0.185	  0.388	  0.412	 -0.043	 -9.773	 -0.011	  0.005	  0.004	 19.400	 100.035	 -99999.000
31546	  0.078	  0.186	  0.389	  0.572	 -0.050	 -9.768	 -0.005	  0.003	  0.018	 19.400	 100.028	 -99999.000
31596	  0.078	  0.184	  0.388	  0.480	 -0.099	 -9.809	  0.001	  0.001	 -0.001	 19.400	 100.024	 -99999.000
31646	  0.077	  0.187	  0.384	  0.432	 -0.081	 -9.763	  0.004	  0.002	 -0.001	 19.400	 100.035	 -99999.000
31696	  0.079	  0.184	  0.386	  0.510	 -0.132	 -9.776	  0.005	  0.001	  0.023	 19.400	 100.024	 -99999.000
31746	  0.079	  0.192	  0.388	  0.453	 -0.288	 -9.771	  0.003	  0.000	  0.002	 19.400	 100.024	 -99999.000
31796	  0.079	  0.185	  0.388	  0.417	 -0.241	 -9.819	 -0.001	  0.002	  0.010	 19.400	 100.035	 -99999.000
31846	  0.078	  0.183	  0.389	  0.386	 -0.225	 -9.794	 -0.004	  0.003	  0.016	 19.400	 100.013	 -99999.000
31896	  0.078	  0.191	  0.388	  0.519	 -0.286	 -9.795	 -0.008	  0.004	 -0.013	 19.400	 100.024	 -99999.000
31946	  0.079	  0.184	  0.389	  0.353	 -0.079	 -9.785	 -0.010	  0.004	  0.011	 19.400	 100.024	 -99999.000
31996	  0.076	  0.189	  0.390	  0.525	 -0.201	 -9.771	 -0.008	  0.004	  0.007	 19.400	 100.035	 -99999.000
32046	  0.076	  0.188	  0.391	  0.578	 -0.099	 -9.727	 -0.005	  0.003	 -0.005	 19.400	 100.030	 -99999.000
32096	  0.076	  0.186	  0.389	  0.396	 -0.009	 -9.757	  0.001	  0.003	  0.008	 19.400	 100.024	 -99999.000
32146	  0.075	  0.186	  0.385	  0.523	 -0.161	 -9.775	  0.004	  0.002	  0.015	 19.400	 100.024	 -99999.000
32196	  0.077	  0.184	  0.385	  0.576	 -0.202	 -9.768	  0.003	  0.001	  0.004	 19.400	 100.035	 -99999.000
32246	  0.079	  0.184	  0.385	  0.417	 -0.194	 -9.826	  0.003	  0.002	 -0.001	 19.400	 100.035	 -99999.000
32296	  0.077	  0.192	  0.389	  0.491	 -0.278	 -9.800	 -0.001	  0.002	  0.013	 19.400	 100.024	 -99999.000
32346	  0.079	  0.189	  0.387	  0.525	 -0.286	 -9.753	 -0.003	  0.001	  0.006	 19.400	 100.024	 -99999.000
32396	  0.077	  0.185	  0.385	  0.417	 -0.223	 -9.814	 -0.007	  0.003	 -0.011	 19.400	 100.035	 -99999.000
32446	  0.078	  0.184	  0.385	  0.473	 -0.142	 -9.785	 -0.010	  0.002	  0.007	 19.400	 100.035	 -99999.000
32496	  0.079	  0.186	  0.388	  0.497	 -0.169	 -9.766	 -0.008	  0.003	  0.005	 19.400	 100.035	 -99999.000
32546	  0.078	  0.189	  0.387	  0.457	 -0.141	 -9.779	 -0.004	  0.003	 -0.006	 19.400	 100.039	 -99999.000
32596	  0.081	  0.187	  0.388	  0.443	 -0.039	 -9.759	 -0.001	  0.002	  0.011	 19.400	 100.028	 -99999.000
32646	  0.081	  0.187	  0.383	  0.494	 -0.141	 -9.769	  0.003	  0.003	  0.009	 19.400	 100.024	 -99999.000
32696	  0.079	  0.193	  0.385	  0.479	 -0.186	 -9.760	  0.004	  0.002	  0.002	 19.400	 100.024	 -99999.000
32746	  0.078	  0.188	  0.385	  0.427	 -0.150	 -9.791	  0.003	  0.003	  0.007	 19.400	 100.028	 -99999.000
32796	  0.079	  0.189	  0.385	  0.503	 -0.259	 -9.789	  0.001	  0.003	  0.007	 19.400	 100.035	 -99999.000
32846	  0.081	  0.193	  0.389	  0.503	 -0.263	 -9.799	 -0.001	  0.003	  0.006	 19.400	 100.028	 -99999.000
32896	  0.081	  0.193	  0.389	  0.481	 -0.210	 -9.785	 -0.004	  0.003	  0.002	 19.400	 100.035	 -99999.000
32946	  0.080	  0.193	  0.390	  0.497	 -0.234	 -9.783	 -0.006	  0.002	  0.006	 19.400	 100.039	 -99999.000
32997	  0.082	  0.188	  0.394	  0.500	 -0.173	 -9.791	 -0.006	  0.003	  0.003	 19.400	 100.028	 -99999.000
33046	  0.080	  0.191	  0.387	  0.458	 -0.211	 -9.795	 -0.006	  0.002	  0.001	 19.400	 100.024	 -99999.000
33097	  0.079	  0.189	  0.395	  0.510	 -0.166	 -9.720	 -0.006	  0.002	  0.006	 19.400	 100.035	 -99999.000
33146	  0.078	  0.192	  0.396	  0.476	 -0.149	 -9.794	 -0.003	  0.001	  0.007	 19.400	 100.024	 -99999.000
33196	  0.079	  0.189	  0.394	  0.497	 -0.245	 -9.831	 -0.004	  0.002	  0.005	 19.400	 100.024	 -99999.000
33246	  0.079	  0.184	  0.396	  0.454	 -0.219	 -9.785	 -0.008	  0.001	  0.009	 19.400	 100.028	 -99999.000
33297	  0.077	  0.188	  0.396	  0.520	 -0.217	 -9.782	 -0.009	  0.002	 -0.002	 19.400	 100.024	 -99999.000
33347	  0.079	  0.190	  0.394	  0.464	 -0.229	 -9.798	 -0.013	  0.002	  0.009	 19.400	 100.039	 -99999.000
33397	  0.077	  0.188	  0.396	  0.485	 -0.166	 -9.772	 -0.014	  0.004	 -0.006	 19.400	 100.035	 -99999.000
33447	  0.077	  0.186	  0.394	  0.480	 -0.119	 -9.755	 -0.011	  0.003	 -0.002	 19.400	 100.024	 -99999.000
33497	  0.074	  0.186	  0.396	  0.423	  0.002	 -9.750	 -0.007	  0.003	  0.006	 19.400	 100.035	 -99999.000
33547	  0.074	  0.186	  0.393	  0.533	 -0.097	 -9.775	 -0.002	  0.003	  0.005	 19.400	 100.039	 -99999.000
33596	  0.074	  0.188	  0.393	  0.490	 -0.089	 -9.736	  0.003	  0.003	  0.006	 19.400	 100.039	 -99999.000
33646	  0.077	  0.185	  0.395	  0.444	 -0.112	 -9.788	  0.005	  0.002	  0.008	 19.400	 100.035	 -99999.000
33696	  0.076	  0.184	  0.386	  0.506	 -0.235	 -9.772	  0.003	  0.002	  0.016	 19.400	 100.017	 -99999.000
33746	  0.075	  0.184	  0.391	  0.513	 -0.266	 -9.799	 -0.001	  0.002	  0.001	 19.400	 100.024	 -99999.000
33796	  0.074	  0.188	  0.391	  0.456	 -0.266	 -9.802	 -0.005	  0.000	 -0.002	 19.400	 100.024	 -99999.000
33846	  0.076	  0.188	  0.395	  0.442	 -0.255	 -9.803	 -0.011	  0.003	  0.007	 19.400	 100.024	 -99999.000
33896	  0.075	  0.183	  0.391	  0.522	 -0.194	 -9.742	 -0.011	  0.002	 -0.005	 19.400	 100.035	 -99999.000
33946	  0.075	  0.188	  0.394	  0.461	 -0.077	 -9.754	 -0.010	  0.002	 -0.003	 19.400	 100.035	 -99999.000
33996	  0.075	  0.189	  0.394	  0.450	 -0.032	 -9.754	 -0.006	  0.003	  0.005	 19.400	 100.039	 -99999.000
34046	  0.074	  0.185	  0.388	  0.514	 -0.111	 -9.752	 -0.001	  0.003	  0.009	 19.400	 100.024	 -99999.000
34096	  0.074	  0.184	  0.392	  0.480	 -0.127	 -9.769	  0.003	  0.003	  0.004	 19.400	 100.024	 -99999.000
34146	  0.076	  0.184	  0.395	  0.448	 -0.136	 -9.739	  0.004	  0.002	  0.007	 19.400	 100.028	 -99999.000
34196	  0.077	  0.183	  0.391	  0.492	 -0.235	 -9.738	  0.003	  0.002	  0.015	 19.400	 100.039	 -99999.000
48295	  0.076	  0.186	  0.388	  0.380	 -0.082	 -9.816	 -0.005	  0.004	 -0.003	 19.400	 100.037	 -0.628
48346	  0.077	  0.185	  0.389	  0.430	 -0.126	 -9.776	 -0.004	  0.007	  0.014	 19.400	 100.041	 -0.970
48396	  0.078	  0.184	  0.388	  0.507	 -0.208	 -9.805	 -0.003	  0.007	  0.015	 19.400	 100.026	  0.316
48446	  0.077	  0.187	  0.390	  0.522	 -0.185	 -9.775	 -0.002	  0.006	 -0.005	 19.400	 100.026	  0.316
48496	  0.078	  0.184	  0.386	  0.448	 -0.079	 -9.772	 -0.001	  0.003	  0.016	 19.400	 100.019	  0.916
48545	  0.076	  0.191	  0.390	  0.522	 -0.223	 -9.796	 -0.002	  0.000	  0.006	 19.400	 100.030	 -0.027
48595	  0.078	  0.184	  0.393	  0.545	 -0.187	 -9.782	 -0.003	 -0.003	 -0.011	 19.400	 100.026	  0.316
48645	  0.077	  0.185	  0.388	  0.366	 -0.089	 -9.768	 -0.003	 -0.002	  0.002	 19.400	 100.041	 -0.970
48695	  0.077	  0.185	  0.386	  0.481	 -0.252	 -9.809	 -0.005	  0.002	  0.007	 19.400	 100.030	 -0.027
48745	  0.076	  0.184	  0.388	  0.348	 -0.053	 -9.932	 -0.007	  0.000	  0.005	 19.400	 100.026	  0.316
48795	  0.075	  0.188	  0.388	  0.468	 -0.189	 -9.691	 -0.003	  0.006	 -0.002	 19.400	 100.030	 -0.027
48845	  0.077	  0.188	  0.390	  0.521	 -0.231	 -9.824	 -0.006	  0.007	  0.024	 19.400	 100.030	 -0.027
48895	  0.078	  0.187	  0.387	  0.622	 -0.153	 -9.792	 -0.003	  0.006	  0.000	 19.400	 100.026	  0.316
48945	  0.076	  0.183	  0.390	  0.592	 -0.156	 -9.789	 -0.002	  0.004	  0.010	 19.400	 100.026	  0.316
48995	  0.079	  0.188	  0.388	  0.471	 -0.143	 -9.772	 -0.001	  0.000	  0.002	 19.400	 100.030	 -0.027
49045	  0.078	  0.187	  0.389	  0.593	 -0.172	 -9.789	 -0.002	 -0.001	  0.005	 19.400	 100.026	  0.316
49095	  0.075	  0.184	  0.386	  0.437	 -0.208	 -9.765	 -0.002	 -0.002	  0.001	 19.400	 100.026	  0.316
49145	  0.078	  0.188	  0.388	  0.417	 -0.221	 -9.792	 -0.004	  0.000	 -0.006	 19.400	 100.030	 -0.027
49195	  0.078	  0.189	  0.388	  0.437	 -0.136	 -9.783	 -0.006	  0.002	  0.008	 19.400	 100.026	  0.316
49245	  0.077	  0.183	  0.386	  0.411	 -0.165	 -9.770	 -0.004	  0.003	 -0.007	 19.400	 100.019	  0.916
49295	  0.078	  0.184	  0.385	  0.410	 -0.164	 -9.799	 -0.005	  0.005	  0.008	 19.400	 100.030	 -0.027
49345	  0.079	  0.189	  0.391	  0.471	 -0.064	 -9.784	 -0.004	  0.006	  0.014	 19.400	 100.026	  0.316
49395	  0.078	  0.185	  0.388	  0.584	 -0.275	 -9.768	 -0.001	  0.004	 -0.004	 19.400	 100.030	 -0.027
49445	  0.076	  0.186	  0.389	  0.455	 -0.116	 -9.791	 -0.004	  0.002	 -0.010	 19.400	 100.026	  0.316
49495	  0.076	  0.184	  0.390	  0.491	 -0.059	 -9.779	 -0.001	 -0.000	  0.011	 19.400	 100.026	  0.316
49545	  0.078	  0.185	  0.388	  0.493	 -0.271	 -9.755	 -0.003	 -0.002	  0.028	 19.400	 100.041	 -0.970
49595	  0.075	  0.189	  0.391	  0.478	 -0.213	 -9.771	 -0.004	  0.001	 -0.031	 19.400	 100.030	 -0.027
49645	  0.077	  0.191	  0.391	  0.392	 -0.050	 -9.791	 -0.005	  0.002	  0.013	 19.400	 100.037	 -0.628
49696	  0.075	  0.189	  0.391	  0.313	 -0.169	 -9.769	 -0.004	  0.006	  0.032	 19.400	 100.026	  0.316
49745	  0.077	  0.190	  0.391	  0.655	 -0.274	 -9.807	 -0.004	  0.006	 -0.007	 19.400	 100.030	 -0.027
49795	  0.076	  0.187	  0.387	  0.354	  0.012	 -9.796	 -0.002	  0.006	 -0.001	 19.400	 100.026	  0.316
49845	  0.075	  0.188	  0.388	  0.496	 -0.161	 -9.786	 -0.002	  0.007	  0.030	 19.400	 100.030	 -0.027
49895	  0.079	  0.184	  0.388	  0.561	 -0.210	 -9.747	 -0.003	  0.004	  0.031	 19.400	 100.030	 -0.027
49945	  0.078	  0.186	  0.386	  0.626	 -0.195	 -9.765	 -0.000	  0.000	 -0.028	 19.400	 100.041	 -0.970
49996	  0.076	  0.192	  0.390	  0.396	 -0.127	 -9.777	 -0.002	 -0.000	  0.016	 19.400	 100.019	  0.916
50045	  0.077	  0.186	  0.390	  0.493	 -0.204	 -9.788	 -0.002	 -0.002	 -0.000	 19.400	 100.037	 -0.628
50095	  0.077	  0.186	  0.388	  0.563	 -0.279	 -9.749	 -0.006	 -0.002	 -0.011	 19.400	 100.026	  0.316
50146	  0.078	  0.187	  0.388	  0.253	 -0.057	 -9.820	 -0.006	 -0.000	  0.002	 19.400	 100.026	  0.316
50196	  0.075	  0.188	  0.389	  0.442	 -0.189	 -9.816	 -0.007	  0.004	  0.015	 19.400	 100.041	 -0.970
50246	  0.078	  0.189	  0.390	  0.450	 -0.216	 -9.779	 -0.007	  0.006	  0.006	 19.400	 100.037	 -0.628
50296	  0.077	  0.187	  0.390	  0.449	 -0.078	 -9.816	 -0.002	  0.009	 -0.008	 19.400	 100.030	 -0.027
50346	  0.078	  0.185	  0.389	  0.447	 -0.053	 -9.743	 -0.002	  0.008	  0.032	 19.400	 100.041	 -0.970
50396	  0.079	  0.192	  0.391	  0.611	 -0.278	 -9.782	  0.000	  0.007	  0.004	 19.400	 100.030	 -0.027
50446	  0.078	  0.191	  0.387	  0.560	 -0.161	 -9.746	 -0.001	  0.001	 -0.002	 19.400	 100.026	  0.316
50496	  0.076	  0.186	  0.384	  0.476	 -0.104	 -9.773	 -0.001	 -0.003	  0.004	 19.400	 100.019	  0.916
50546	  0.077	  0.183	  0.389	  0.594	 -0.327	 -9.775	 -0.004	 -0.005	  0.009	 19.400	 100.030	 -0.027
50596	  0.079	  0.189	  0.387	  0.348	 -0.135	 -9.779	 -0.006	 -0.003	 -0.023	 19.400	 100.030	 -0.027
50646	  0.079	  0.190	  0.393	  0.413	 -0.136	 -9.808	 -0.005	  0.001	  0.008	 19.400	 100.030	 -0.027
50696	  0.078	  0.186	  0.385	  0.416	 -0.219	 -9.797	 -0.007	  0.003	  0.014	 19.400	 100.030	 -0.027
50746	  0.077	  0.193	  0.389	  0.486	 -0.123	 -9.750	 -0.005	  0.007	 -0.026	 19.400	 100.030	 -0.027
50796	  0.078	  0.184	  0.389	  0.432	 -0.083	 -9.747	 -0.004	  0.006	  0.022	 19.400	 100.030	 -0.027
50846	  0.077	  0.185	  0.387	  0.496	 -0.148	 -9.767	 -0.002	  0.007	  0.018	 19.400	 100.019	  0.916
50896	  0.075	  0.184	  0.391	  0.648	 -0.218	 -9.738	 -0.001	  0.003	 -0.005	 19.400	 100.041	 -0.970
50946	  0.075	  0.191	  0.389	  0.384	 -0.026	 -9.768	 -0.000	  0.000	  0.007	 19.400	 100.030	 -0.027
50996	  0.077	  0.187	  0.390	  0.508	 -0.247	 -9.797	  0.000	 -0.001	  0.003	 19.400	 100.026	  0.316
51046	  0.078	  0.190	  0.388	  0.485	 -0.223	 -9.786	 -0.003	 -0.002	  0.019	 19.400	 100.030	 -0.027
51096	  0.079	  0.185	  0.384	  0.369	 -0.144	 -9.804	 -0.001	 -0.002	 -0.015	 19.400	 100.019	  0.916
51146	  0.077	  0.193	  0.387	  0.393	 -0.193	 -9.780	 -0.005	  0.005	  0.020	 19.400	 100.030	 -0.027
51196	  0.078	  0.186	  0.390	  0.440	 -0.150	 -9.797	 -0.006	  0.008	  0.012	 19.400	 100.030	 -0.027
51246	  0.079	  0.186	  0.384	  0.533	 -0.204	 -9.778	 -0.005	  0.007	 -0.001	 19.400	 100.019	  0.916
51296	  0.076	  0.186	  0.390	  0.531	 -0.121	 -9.753	 -0.004	  0.005	  0.002	 19.400	 100.030	 -0.027
51346	  0.077	  0.189	  0.389	  0.567	 -0.157	 -9.741	 -0.003	  0.001	 -0.004	 19.400	 100.037	 -0.628
51396	  0.077	  0.190	  0.389	  0.587	 -0.193	 -9.741	 -0.004	 -0.003	  0.001	 19.400	 100.030	 -0.027
51446	  0.078	  0.190	  0.391	  0.442	 -0.129	 -9.783	 -0.002	 -0.008	 -0.011	 19.400	 100.030	 -0.027
51496	  0.079	  0.185	  0.388	  0.416	 -0.159	 -9.813	 -0.003	 -0.006	  0.006	 19.400	 100.030	 -0.027
51546	  0.076	  0.184	  0.388	  0.428	 -0.167	 -9.808	 -0.003	 -0.003	  0.001	 19.400	 100.030	 -0.027
51596	  0.079	  0.191	  0.388	  0.357	 -0.153	 -9.780	 -0.002	  0.002	 -0.008	 19.400	 100.041	 -0.970
51646	  0.076	  0.185	  0.388	  0.353	 -0.131	 -9.813	 -0.005	  0.008	  0.015	 19.400	 100.030	 -0.027
51696	  0.076	  0.184	  0.389	  0.476	 -0.195	 -9.812	 -0.004	  0.011	  0.016	 19.400	 100.019	  0.916
51746	  0.077	  0.187	  0.390	  0.574	 -0.224	 -9.741	 -0.004	  0.008	  0.001	 19.400	 100.030	 -0.027
51796	  0.076	  0.186	  0.386	  0.518	 -0.156	 -9.764	 -0.004	  0.004	  0.005	 19.400	 100.030	 -0.027
51846	  0.078	  0.186	  0.390	  0.594	 -0.177	 -9.768	 -0.004	  0.000	  0.007	 19.400	 100.030	 -0.027
51896	  0.077	  0.184	  0.386	  0.554	 -0.211	 -9.786	 -0.004	 -0.004	 -0.001	 19.400	 100.030	 -0.027
51946	  0.076	  0.184	  0.390	  0.486	 -0.168	 -9.753	 -0.003	 -0.006	 -0.010	 19.400	 100.030	 -0.027
51996	  0.077	  0.187	  0.388	  0.336	 -0.128	 -9.776	 -0.004	 -0.003	  0.002	 19.400	 100.019	  0.916
52046	  0.077	  0.188	  0.387	  0.388	 -0.156	 -9.813	 -0.004	  0.002	  0.007	 19.400	 100.030	 -0.027
52096	  0.078	  0.184	  0.389	  0.408	 -0.178	 -9.777	 -0.003	  0.005	  0.004	 19.400	 100.019	  0.916
52146	  0.078	  0.186	  0.386	  0.398	 -0.150	 -9.825	 -0.003	  0.010	  0.008	 19.400	 100.030	 -0.027
52196	  0.077	  0.183	  0.387	  0.504	 -0.169	 -9.811	 -0.004	  0.011	  0.015	 19.400	 100.030	 -0.027
52245	  0.078	  0.187	  0.390	  0.563	 -0.197	 -9.765	 -0.004	  0.007	  0.008	 19.400	 100.030	 -0.027
52296	  0.077	  0.184	  0.391	  0.550	 -0.156	 -9.724	 -0.002	  0.003	 -0.000	 19.400	 100.030	 -0.027
52345	  0.076	  0.185	  0.387	  0.573	 -0.157	 -9.759	 -0.003	 -0.002	  0.002	 19.400	 100.015	  1.259
52395	  0.076	  0.193	  0.389	  0.500	 -0.174	 -9.762	 -0.003	 -0.007	 -0.005	 19.400	 100.019	  0.916
52445	  0.076	  0.187	  0.387	  0.419	 -0.175	 -9.780	 -0.003	 -0.007	 -0.004	 19.400	 100.030	 -0.027
52495	  0.078	  0.186	  0.391	  0.377	 -0.153	 -9.789	 -0.003	 -0.003	 -0.001	 19.500	 100.030	 -0.027
52545	  0.078	  0.187	  0.390	  0.362	 -0.159	 -9.848	 -0.004	  0.003	  0.005	 19.400	 100.030	 -0.027
52595	  0.077	  0.183	  0.388	  0.389	 -0.175	 -9.815	 -0.004	  0.008	  0.009	 19.500	 100.019	  0.916
52645	  0.078	  0.185	  0.391	  0.461	 -0.143	 -9.769	 -0.003	  0.010	  0.011	 19.400	 100.019	  0.916
52695	  0.077	  0.189	  0.391	  0.509	 -0.178	 -9.772	 -0.003	  0.010	  0.010	 19.500	 100.034	 -0.369
52745	  0.076	  0.188	  0.391	  0.577	 -0.194	 -9.760	 -0.003	  0.005	  0.008	 19.400	 100.030	 -0.027
52795	  0.077	  0.185	  0.388	  0.561	 -0.174	 -9.738	 -0.002	  0.001	  0.003	 19.500	 100.030	 -0.027
52845	  0.079	  0.184	  0.389	  0.525	 -0.168	 -9.730	 -0.002	 -0.003	 -0.000	 19.400	 100.030	 -0.027
52895	  0.077	  0.185	  0.388	  0.474	 -0.168	 -9.811	 -0.003	 -0.005	 -0.001	 19.400	 100.019	  0.916
52945	  0.078	  0.184	  0.387	  0.427	 -0.180	 -9.784	 -0.004	 -0.002	 -0.000	 19.400	 100.019	  0.916
52995	  0.077	  0.189	  0.389	  0.379	 -0.157	 -9.789	 -0.004	 -0.001	  0.002	 19.400	 100.019	  0.916
53045	  0.077	  0.186	  0.385	  0.370	 -0.164	 -9.794	 -0.006	  0.006	  0.006	 19.400	 100.030	 -0.027
53095	  0.075	  0.186	  0.388	  0.464	 -0.152	 -9.800	 -0.004	  0.007	  0.009	 19.400	 100.030	 -0.027
53145	  0.079	  0.185	  0.386	  0.496	 -0.168	 -9.776	 -0.004	  0.008	  0.008	 19.400	 100.030	 -0.027
53195	  0.075	  0.194	  0.385	  0.515	 -0.156	 -9.729	 -0.003	  0.006	  0.006	 19.400	 100.030	 -0.027
53245	  0.076	  0.186	  0.387	  0.571	 -0.192	 -9.766	 -0.003	  0.002	  0.004	 19.400	 100.030	 -0.027
53295	  0.076	  0.188	  0.393	  0.543	 -0.197	 -9.786	 -0.002	 -0.001	 -0.001	 19.400	 100.019	  0.916
53345	  0.075	  0.185	  0.388	  0.475	 -0.154	 -9.752	 -0.004	 -0.004	 -0.002	 19.400	 100.030	 -0.027
53395	  0.077	  0.186	  0.390	  0.469	 -0.166	 -9.771	 -0.004	 -0.003	  0.001	 19.400	 100.030	 -0.027
53445	  0.077	  0.185	  0.390	  0.388	 -0.179	 -9.817	 -0.004	 -0.002	 -0.001	 19.400	 100.030	 -0.027
53495	  0.079	  0.186	  0.389	  0.394	 -0.124	 -9.760	 -0.003	  0.003	  0.003	 19.400	 100.019	  0.916
53545	  0.075	  0.184	  0.389	  0.411	 -0.145	 -9.790	 -0.003	  0.007	  0.010	 19.500	 100.045	 -1.312
53595	  0.075	  0.186	  0.388	  0.451	 -0.169	 -9.767	 -0.003	  0.010	  0.009	 19.400	 100.041	 -0.970
53645	  0.076	  0.188	  0.391	  0.523	 -0.118	 -9.771	 -0.003	  0.008	  0.006	 19.400	 100.030	 -0.027
53695	  0.078	  0.186	  0.389	  0.517	 -0.167	 -9.750	 -0.002	  0.004	  0.009	 19.400	 100.030	 -0.027
53745	  0.077	  0.187	  0.387	  0.562	 -0.182	 -9.765	 -0.001	  0.001	  0.002	 19.500	 100.045	 -1.312
53795	  0.078	  0.187	  0.389	  0.519	 -0.174	 -9.760	 -0.002	 -0.002	 -0.004	 19.500	 100.034	 -0.369
53845	  0.076	  0.184	  0.387	  0.440	 -0.151	 -9.867	 -0.003	 -0.002	  0.005	 19.500	 100.034	 -0.369
53895	  0.077	  0.187	  0.390	  0.465	 -0.228	 -9.801	 -0.004	  0.000	  0.001	 19.500	 100.030	 -0.027
53945	  0.076	  0.184	  0.388	  0.425	 -0.161	 -9.787	 -0.005	  0.003	  0.001	 19.500	 100.034	 -0.369
53995	  0.077	  0.191	  0.388	  0.427	 -0.106	 -9.788	 -0.004	  0.004	  0.006	 19.400	 100.030	 -0.027
54045	  0.079	  0.186	  0.389	  0.467	 -0.177	 -9.777	 -0.004	  0.007	  0.011	 19.500	 100.034	 -0.369
54095	  0.077	  0.185	  0.390	  0.533	 -0.182	 -9.790	 -0.003	  0.005	  0.005	 19.400	 100.019	  0.916
54145	  0.077	  0.184	  0.387	  0.491	 -0.127	 -9.741	 -0.003	  0.004	  0.000	 19.500	 100.039	 -0.798
54195	  0.079	  0.184	  0.386	  0.506	 -0.160	 -9.744	 -0.003	  0.002	  0.011	 19.500	 100.034	 -0.369
54245	  0.077	  0.183	  0.391	  0.564	 -0.217	 -9.769	 -0.002	 -0.001	  0.000	 19.400	 100.019	  0.916
54295	  0.077	  0.184	  0.386	  0.444	 -0.154	 -9.786	 -0.004	 -0.002	 -0.006	 19.500	 100.030	 -0.027
54345	  0.078	  0.183	  0.385	  0.424	 -0.160	 -9.754	 -0.004	 -0.001	  0.008	 19.500	 100.023	  0.573
54395	  0.077	  0.190	  0.387	  0.458	 -0.182	 -9.777	 -0.004	  0.000	  0.004	 19.500	 100.034	 -0.369
54445	  0.077	  0.191	  0.390	  0.380	 -0.183	 -9.787	 -0.005	  0.002	 -0.003	 19.500	 100.034	 -0.369
54495	  0.078	  0.184	  0.383	  0.419	 -0.130	 -9.767	 -0.004	  0.005	  0.010	 19.500	 100.023	  0.573
54545	  0.077	  0.186	  0.393	  0.511	 -0.174	 -9.764	 -0.003	  0.004	  0.008	 19.500	 100.023	  0.573
54595	  0.078	  0.185	  0.389	  0.464	 -0.173	 -9.759	 -0.003	  0.006	  0.003	 19.500	 100.030	 -0.027
54645	  0.075	  0.189	  0.389	  0.501	 -0.130	 -9.768	 -0.003	  0.003	  0.005	 19.500	 100.034	 -0.369
54695	  0.078	  0.185	  0.389	  0.529	 -0.159	 -9.758	 -0.001	  0.001	  0.006	 19.500	 100.023	  0.573
54745	  0.077	  0.187	  0.390	  0.484	 -0.179	 -9.789	 -0.003	 -0.001	  0.001	 19.400	 100.030	 -0.027
54795	  0.077	  0.184	  0.384	  0.481	 -0.176	 -9.801	 -0.003	 -0.000	 -0.001	 19.500	 100.030	 -0.027
54845	  0.078	  0.188	  0.388	  0.442	 -0.180	 -9.770	 -0.004	 -0.001	  0.002	 19.400	 100.030	 -0.027
54895	  0.078	  0.183	  0.385	  0.426	 -0.179	 -9.768	 -0.005	  0.002	  0.001	 19.500	 100.030	 -0.027
54945	  0.077	  0.184	  0.390	  0.437	 -0.137	 -9.792	 -0.004	  0.004	  0.004	 19.500	 100.023	  0.573
54995	  0.078	  0.184	  0.385	  0.404	 -0.162	 -9.806	 -0.004	  0.006	  0.008	 19.500	 100.012	  1.516
55045	  0.079	  0.184	  0.384	  0.457	 -0.147	 -9.775	 -0.003	  0.005	  0.007	 19.500	 100.030	 -0.027
55095	  0.078	  0.184	  0.391	  0.528	 -0.135	 -9.745	 -0.002	  0.005	  0.006	 19.500	 100.030	 -0.027
55145	  0.077	  0.185	  0.384	  0.514	 -0.161	 -9.790	 -0.002	  0.002	  0.006	 19.500	 100.019	  0.916
55195	  0.081	  0.184	  0.391	  0.504	 -0.177	 -9.791	 -0.003	  0.002	  0.004	 19.500	 100.034	 -0.369
55245	  0.078	  0.184	  0.388	  0.511	 -0.169	 -9.796	 -0.002	  0.000	  0.002	 19.500	 100.034	 -0.369
55295	  0.079	  0.185	  0.389	  0.444	 -0.187	 -9.789	 -0.003	 -0.001	 -0.001	 19.500	 100.034	 -0.369
55345	  0.078	  0.185	  0.389	  0.435	 -0.180	 -9.765	 -0.004	  0.001	  0.003	 19.500	 100.023	  0.573
55395	  0.079	  0.184	  0.387	  0.439	 -0.162	 -9.787	 -0.005	  0.002	  0.004	 19.500	 100.019	  0.916
55445	  0.079	  0.189	  0.391	  0.431	 -0.185	 -9.781	 -0.005	  0.005	  0.001	 19.500	 100.030	 -0.027
55495	  0.081	  0.182	  0.392	  0.461	 -0.138	 -9.778	 -0.004	  0.006	  0.009	 19.400	 100.030	 -0.027
55546	  0.081	  0.183	  0.391	  0.494	 -0.149	 -9.778	 -0.002	  0.005	  0.005	 19.500	 100.019	  0.916
55595	  0.080	  0.181	  0.394	  0.485	 -0.162	 -9.785	 -0.002	  0.004	  0.005	 19.500	 100.023	  0.573
55646	  0.081	  0.183	  0.394	  0.490	 -0.150	 -9.750	 -0.002	  0.002	  0.006	 19.500	 100.023	  0.573
55695	  0.079	  0.184	  0.395	  0.494	 -0.189	 -9.768	 -0.001	 -0.002	  0.004	 19.500	 100.034	 -0.369
55746	  0.081	  0.184	  0.395	  0.471	 -0.204	 -9.766	 -0.004	 -0.001	 -0.001	 19.500	 100.034	 -0.369
55795	  0.081	  0.188	  0.400	  0.431	 -0.177	 -9.753	 -0.005	 -0.001	  0.003	 19.500	 100.034	 -0.369
55846	  0.083	  0.184	  0.402	  0.416	 -0.164	 -9.776	 -0.005	  0.001	  0.002	 19.500	 100.034	 -0.369
55895	  0.083	  0.189	  0.407	  0.409	 -0.126	 -9.784	 -0.004	  0.004	  0.001	 19.500	 100.023	  0.573
55946	  0.082	  0.193	  0.406	  0.428	 -0.120	 -9.774	 -0.005	  0.005	  0.008	 19.500	 100.023	  0.573
55996	  0.084	  0.188	  0.408	  0.480	 -0.170	 -9.757	 -0.005	  0.005	  0.007	 19.500	 100.034	 -0.369
56046	  0.085	  0.193	  0.407	  0.484	 -0.170	 -9.767	 -0.002	  0.004	  0.007	 19.500	 100.034	 -0.369
56096	  0.085	  0.189	  0.407	  0.542	 -0.149	 -9.741	 -0.002	  0.003	  0.005	 19.500	 100.019	  0.916
56146	  0.084	  0.192	  0.407	  0.501	 -0.193	 -9.754	 -0.001	  0.002	  0.003	 19.500	 100.023	  0.573
56196	  0.084	  0.197	  0.409	  0.470	 -0.194	 -9.771	 -0.003	 -0.000	  0.003	 19.500	 100.023	  0.573
56246	  0.086	  0.197	  0.409	  0.477	 -0.207	 -9.765	 -0.003	 -0.000	 -0.000	 19.500	 100.023	  0.573
56296	  0.085	  0.193	  0.407	  0.444	 -0.172	 -9.760	 -0.005	 -0.000	  0.002	 19.500	 100.034	 -0.369
56346	  0.086	  0.195	  0.406	  0.414	 -0.171	 -9.773	 -0.006	  0.003	  0.003	 19.500	 100.023	  0.573
56396	  0.087	  0.195	  0.410	  0.460	 -0.148	 -9.767	 -0.005	  0.004	  0.003	 19.500	 100.023	  0.573
56446	  0.085	  0.194	  0.405	  0.434	 -0.130	 -9.795	 -0.003	  0.005	  0.007	 19.500	 100.045	 -1.312
56496	  0.086	  0.195	  0.407	  0.471	 -0.133	 -9.757	 -0.003	  0.006	  0.006	 19.500	 100.034	 -0.369
56546	  0.084	  0.196	  0.408	  0.520	 -0.170	 -9.740	 -0.002	  0.003	  0.006	 19.500	 100.034	 -0.369
56596	  0.086	  0.197	  0.406	  0.472	 -0.175	 -9.737	 -0.001	  0.002	  0.005	 19.500	 100.034	 -0.369
56646	  0.086	  0.198	  0.406	  0.490	 -0.184	 -9.754	 -0.003	  0.001	  0.004	 19.500	 100.034	 -0.369
56696	  0.085	  0.202	  0.407	  0.495	 -0.182	 -9.774	 -0.002	 -0.001	  0.002	 19.500	 100.023	  0.573
56746	  0.087	  0.195	  0.410	  0.451	 -0.183	 -9.774	 -0.005	 -0.002	 -0.001	 19.500	 100.023	  0.573
56796	  0.086	  0.201	  0.410	  0.445	 -0.159	 -9.754	 -0.004	  0.002	  0.004	 19.500	 100.023	  0.573
56846	  0.086	  0.202	  0.409	  0.450	 -0.158	 -9.777	 -0.004	  0.004	  0.005	 19.500	 100.034	 -0.369
56896	  0.084	  0.198	  0.410	  0.430	 -0.160	 -9.774	 -0.003	  0.003	  0.004	 19.500	 100.030	 -0.027
56946	  0.084	  0.192	  0.406	  0.453	 -0.134	 -9.765	 -0.002	  0.004	  0.006	 19.500	 100.023	  0.573
56996	  0.086	  0.200	  0.404	  0.485	 -0.147	 -9.795	 -0.001	  0.004	  0.009	 19.500	 100.034	 -0.369
57046	  0.086	  0.196	  0.406	  0.517	 -0.168	 -9.739	 -0.002	  0.002	  0.003	 19.500	 100.034	 -0.369
57096	  0.086	  0.205	  0.405	  0.493	 -0.180	 -9.761	 -0.003	  0.001	  0.005	 19.500	 100.023	  0.573
57146	  0.086	  0.196	  0.404	  0.489	 -0.180	 -9.813	 -0.003	 -0.001	  0.005	 19.500	 100.034	 -0.369
57196	  0.086	  0.195	  0.406	  0.468	 -0.192	 -9.790	 -0.004	 -0.000	  0.001	 19.500	 100.023	  0.573
57246	  0.085	  0.198	  0.408	  0.460	 -0.149	 -9.785	 -0.003	 -0.001	 -0.000	 19.500	 100.012	  1.516
57296	  0.086	  0.199	  0.407	  0.420	 -0.162	 -9.783	 -0.004	  0.001	  0.004	 19.500	 100.034	 -0.369
57346	  0.086	  0.196	  0.407	  0.445	 -0.155	 -9.785	 -0.005	  0.004	  0.007	 19.500	 100.034	 -0.369
57396	  0.086	  0.203	  0.408	  0.473	 -0.126	 -9.776	 -0.003	  0.002	  0.004	 19.500	 100.034	 -0.369
57446	  0.085	  0.198	  0.407	  0.479	 -0.155	 -9.777	 -0.002	  0.004	  0.007	 19.500	 100.034	 -0.369
57496	  0.086	  0.195	  0.406	  0.503	 -0.165	 -9.775	 -0.002	  0.004	  0.006	 19.500	 100.034	 -0.369
57546	  0.084	  0.196	  0.400	  0.514	 -0.166	 -9.811	 -0.001	  0.003	  0.004	 19.500	 100.023	  0.573
57596	  0.086	  0.197	  0.402	  0.471	 -0.181	 -9.784	 -0.001	  0.001	  0.003	 19.500	 100.012	  1.516
57646	  0.086	  0.197	  0.408	  0.465	 -0.178	 -9.790	 -0.003	  0.001	  0.003	 19.500	 100.023	  0.573
57696	  0.084	  0.196	  0.408	  0.456	 -0.186	 -9.767	 -0.005	  0.000	  0.001	 19.500	 100.034	 -0.369
57746	  0.086	  0.200	  0.403	  0.424	 -0.174	 -9.765	 -0.006	  0.002	  0.003	 19.500	 100.045	 -1.312
57796	  0.086	  0.199	  0.410	  0.434	 -0.177	 -9.794	 -0.004	  0.004	  0.003	 19.500	 100.012	  1.516
57846	  0.085	  0.198	  0.409	  0.493	 -0.135	 -9.750	 -0.004	  0.004	  0.005	 19.500	 100.023	  0.573
57896	  0.088	  0.198	  0.406	  0.449	 -0.163	 -9.804	 -0.003	  0.004	  0.005	 19.500	 100.023	  0.573
57946	  0.086	  0.199	  0.406	  0.471	 -0.153	 -9.780	 -0.003	  0.005	  0.006	 19.500	 100.023	  0.573
57996	  0.086	  0.198	  0.405	  0.520	 -0.165	 -9.801	 -0.001	  0.002	  0.006	 19.500	 100.045	 -1.312
58046	  0.087	  0.196	  0.405	  0.471	 -0.186	 -9.767	 -0.002	  0.001	  0.004	 19.500	 100.034	 -0.369
58096	  0.086	  0.198	  0.404	  0.492	 -0.198	 -9.780	 -0.002	  0.001	  0.004	 19.500	 100.028	  0.145
58146	  0.085	  0.204	  0.407	  0.454	 -0.177	 -9.788	 -0.003	  0.001	  0.001	 19.500	 100.023	  0.573
58196	  0.086	  0.203	  0.403	  0.435	 -0.162	 -9.772	 -0.004	  0.001	  0.002	 19.500	 100.017	  1.088
58246	  0.086	  0.201	  0.405	  0.444	 -0.151	 -9.735	 -0.005	  0.002	  0.002	 19.500	 100.034	 -0.369
58296	  0.086	  0.198	  0.401	  0.468	 -0.161	 -9.768	 -0.004	  0.003	  0.002	 19.500	 100.034	 -0.369
58346	  0.085	  0.202	  0.408	  0.455	 -0.138	 -9.764	 -0.004	  0.005	  0.006	 19.500	 100.023	  0.573
58396	  0.086	  0.198	  0.404	  0.497	 -0.141	 -9.771	 -0.002	  0.004	  0.004	 19.500	 100.028	  0.145
58446	  0.085	  0.198	  0.403	  0.479	 -0.184	 -9.754	 -0.002	  0.003	  0.004	 19.500	 100.023	  0.573
58496	  0.086	  0.198	  0.405	  0.466	 -0.171	 -9.753	 -0.001	  0.003	  0.003	 19.500	 100.023	  0.573
58546	  0.086	  0.207	  0.405	  0.479	 -0.168	 -9.782	 -0.002	  0.002	  0.004	 19.500	 100.023	  0.573
58596	  0.087	  0.198	  0.407	  0.462	 -0.181	 -9.814	 -0.003	  0.001	  0.002	 19.500	 100.023	  0.573
58646	  0.085	  0.198	  0.407	  0.454	 -0.157	 -9.783	 -0.004	  0.002	  0.002	 19.500	 100.039	 -0.798
58696	  0.085	  0.197	  0.406	  0.450	 -0.159	 -9.777	 -0.005	  0.002	  0.003	 19.500	 100.034	 -0.369
58746	  0.085	  0.202	  0.406	  0.435	 -0.179	 -9.751	 -0.005	  0.001	  0.006	 19.500	 100.034	 -0.369
58796	  0.086	  0.198	  0.405	  0.460	 -0.129	 -9.766	 -0.004	  0.003	  0.002	 19.500	 100.023	  0.573
58846	  0.083	  0.201	  0.405	  0.466	 -0.134	 -9.770	 -0.003	  0.003	  0.005	 19.500	 100.028	  0.145
58895	  0.084	  0.203	  0.406	  0.455	 -0.154	 -9.771	 -0.002	  0.001	  0.006	 19.500	 100.034	 -0.369
58945	  0.085	  0.199	  0.402	  0.513	 -0.160	 -9.765	 -0.001	  0.002	  0.003	 19.500	 100.023	  0.573
58995	  0.084	  0.197	  0.405	  0.491	 -0.175	 -9.802	 -0.002	  0.001	  0.005	 19.500	 100.034	 -0.369
59045	  0.085	  0.195	  0.401	  0.469	 -0.168	 -9.780	 -0.003	  0.002	  0.004	 19.500	 100.028	  0.145
59095	  0.085	  0.198	  0.405	  0.470	 -0.176	 -9.779	 -0.003	  0.000	  0.004	 19.500	 100.034	 -0.369
59145	  0.085	  0.198	  0.405	  0.450	 -0.171	 -9.784	 -0.005	  0.001	  0.004	 19.500	 100.023	  0.573
59195	  0.084	  0.202	  0.404	  0.436	 -0.157	 -9.759	 -0.005	  0.002	  0.003	 19.500	 100.039	 -0.798
59245	  0.084	  0.198	  0.398	  0.474	 -0.138	 -9.765	 -0.003	  0.003	  0.006	 19.500	 100.023	  0.573
59295	  0.083	  0.200	  0.405	  0.449	 -0.153	 -9.821	 -0.004	  0.003	  0.004	 19.500	 100.034	 -0.369
59345	  0.086	  0.199	  0.404	  0.460	 -0.152	 -9.773	 -0.003	  0.002	  0.004	 19.500	 100.039	 -0.798
59395	  0.084	  0.198	  0.399	  0.491	 -0.158	 -9.798	 -0.001	  0.001	  0.006	 19.500	 100.028	  0.145
59445	  0.084	  0.199	  0.405	  0.483	 -0.181	 -9.807	 -0.001	  0.002	  0.004	 19.500	 100.039	 -0.798
59495	  0.081	  0.198	  0.404	  0.465	 -0.200	 -9.768	 -0.002	  0.002	  0.003	 19.500	 100.028	  0.145
59545	  0.083	  0.199	  0.404	  0.475	 -0.183	 -9.768	 -0.003	  0.001	  0.005	 19.500	 100.034	 -0.369
59595	  0.083	  0.208	  0.404	  0.458	 -0.183	 -9.778	 -0.004	  0.004	  0.003	 19.500	 100.023	  0.573
59645	  0.086	  0.202	  0.407	  0.485	 -0.170	 -9.734	 -0.005	  0.003	  0.004	 19.500	 100.028	  0.145
59695	  0.084	  0.195	  0.400	  0.430	 -0.189	 -9.762	 -0.004	  0.004	  0.004	 19.500	 100.023	  0.573
59745	  0.085	  0.200	  0.403	  0.477	 -0.145	 -9.764	 -0.005	  0.004	  0.005	 19.500	 100.028	  0.145
59795	  0.083	  0.198	  0.407	  0.476	 -0.161	 -9.795	 -0.004	  0.004	  0.007	 19.500	 100.028	  0.145
59845	  0.083	  0.203	  0.407	  0.504	 -0.148	 -9.793	 -0.002	  0.003	  0.003	 19.500	 100.028	  0.145
59895	  0.085	  0.198	  0.405	  0.485	 -0.164	 -9.775	 -0.002	  0.002	  0.005	 19.500	 100.039	 -0.798
59945	  0.086	  0.207	  0.407	  0.459	 -0.171	 -9.758	 -0.002	  0.003	  0.004	 19.500	 100.034	 -0.369
59995	  0.085	  0.200	  0.406	  0.480	 -0.204	 -9.798	 -0.002	  0.002	  0.000	 19.500	 100.028	  0.145
60045	  0.086	  0.203	  0.403	  0.445	 -0.171	 -9.766	 -0.003	  0.002	  0.005	 19.500	 100.023	  0.573
60095	  0.084	  0.204	  0.406	  0.463	 -0.191	 -9.804	 -0.004	  0.003	  0.004	 19.500	 100.028	  0.145
60145	  0.084	  0.203	  0.405	  0.458	 -0.160	 -9.781	 -0.005	  0.001	  0.002	 19.500	 100.028	  0.145
60195	  0.085	  0.200	  0.404	  0.443	 -0.153	 -9.776	 -0.004	  0.003	  0.004	 19.500	 100.028	  0.145
60245	  0.087	  0.212	  0.404	  0.465	 -0.155	 -9.750	 -0.004	  0.002	  0.006	 19.500	 100.028	  0.145
60295	  0.085	  0.202	  0.404	  0.492	 -0.159	 -9.775	 -0.003	  0.002	  0.006	 19.500	 100.039	 -0.798
60345	  0.086	  0.203	  0.405	  0.453	 -0.146	 -9.792	 -0.003	  0.003	  0.004	 19.500	 100.039	 -0.798
60395	  0.085	  0.203	  0.406	  0.487	 -0.152	 -9.760	 -0.002	  0.002	  0.005	 19.500	 100.028	  0.145
60445	  0.084	  0.202	  0.403	  0.494	 -0.160	 -9.796	 -0.002	  0.002	  0.005	 19.500	 100.028	  0.145
60495	  0.086	  0.202	  0.404	  0.442	 -0.178	 -9.774	 -0.004	  0.001	  0.003	 19.500	 100.028	  0.145
60545	  0.085	  0.203	  0.405	  0.472	 -0.163	 -9.747	 -0.004	  0.002	  0.004	 19.500	 100.028	  0.145
60595	  0.086	  0.200	  0.403	  0.472	 -0.187	 -9.776	 -0.004	  0.002	  0.003	 19.500	 100.039	 -0.798
60645	  0.086	  0.201	  0.408	  0.456	 -0.155	 -9.764	 -0.005	  0.002	  0.001	 19.500	 100.028	  0.145
60695	  0.085	  0.199	  0.406	  0.457	 -0.141	 -9.774	 -0.005	  0.003	  0.004	 19.500	 100.017	  1.088
60745	  0.084	  0.202	  0.403	  0.479	 -0.138	 -9.765	 -0.004	  0.004	  0.004	 19.500	 100.023	  0.573
60795	  0.081	  0.204	  0.407	  0.491	 -0.150	 -9.758	 -0.002	  0.002	  0.004	 19.500	 100.028	  0.145
60845	  0.084	  0.202	  0.404	  0.463	 -0.149	 -9.763	 -0.002	  0.003	  0.005	 19.500	 100.028	  0.145
60895	  0.085	  0.208	  0.405	  0.479	 -0.188	 -9.776	 -0.002	  0.003	  0.006	 19.500	 100.017	  1.088
60945	  0.086	  0.202	  0.406	  0.461	 -0.198	 -9.764	 -0.003	  0.001	  0.005	 19.500	 100.028	  0.145
60995	  0.086	  0.201	  0.402	  0.466	 -0.166	 -9.772	 -0.002	  0.002	  0.002	 19.500	 100.028	  0.145
61045	  0.086	  0.207	  0.402	  0.437	 -0.177	 -9.807	 -0.003	  0.002	  0.004	 19.500	 100.034	 -0.369
61095	  0.085	  0.203	  0.406	  0.474	 -0.179	 -9.764	 -0.005	  0.003	  0.005	 19.500	 100.028	  0.145
61145	  0.085	  0.203	  0.403	  0.475	 -0.175	 -9.787	 -0.004	  0.002	  0.002	 19.500	 100.039	 -0.798
61195	  0.085	  0.205	  0.403	  0.458	 -0.165	 -9.773	 -0.004	  0.003	  0.007	 19.500	 100.023	  0.573
61245	  0.084	  0.208	  0.405	  0.485	 -0.148	 -9.773	 -0.003	  0.003	  0.005	 19.500	 100.028	  0.145
61296	  0.086	  0.203	  0.408	  0.506	 -0.159	 -9.787	 -0.001	  0.002	  0.004	 19.500	 100.023	  0.573
61345	  0.083	  0.201	  0.404	  0.475	 -0.158	 -9.789	 -0.002	  0.002	  0.004	 19.500	 100.028	  0.145
61396	  0.086	  0.205	  0.406	  0.476	 -0.159	 -9.770	 -0.002	  0.003	  0.006	 19.500	 100.023	  0.573
61445	  0.084	  0.204	  0.405	  0.472	 -0.177	 -9.775	 -0.002	  0.002	  0.003	 19.500	 100.028	  0.145
61496	  0.085	  0.209	  0.406	  0.430	 -0.179	 -9.795	 -0.003	  0.003	  0.002	 19.500	 100.028	  0.145
61546	  0.082	  0.206	  0.407	  0.454	 -0.162	 -9.820	 -0.004	  0.003	  0.006	 19.500	 100.028	  0.145
61596	  0.085	  0.205	  0.409	  0.483	 -0.182	 -9.783	 -0.004	  0.003	  0.004	 19.500	 100.039	 -0.798
61646	  0.085	  0.204	  0.404	  0.457	 -0.156	 -9.765	 -0.004	  0.003	  0.003	 19.500	 100.028	  0.145
61696	  0.085	  0.203	  0.409	  0.488	 -0.135	 -9.761	 -0.004	  0.003	  0.007	 19.500	 100.039	 -0.798
61746	  0.082	  0.208	  0.406	  0.477	 -0.173	 -9.717	 -0.003	  0.003	  0.007	 19.500	 100.028	  0.145
61796	  0.084	  0.206	  0.409	  0.481	 -0.176	 -9.759	 -0.003	  0.003	  0.001	 19.500	 100.023	  0.573
61846	  0.084	  0.206	  0.408	  0.457	 -0.154	 -9.774	 -0.002	  0.002	  0.006	 19.500	 100.028	  0.145
61896	  0.086	  0.212	  0.407	  0.471	 -0.163	 -9.769	 -0.003	  0.004	  0.008	 19.500	 100.028	  0.145
61946	  0.084	  0.205	  0.405	  0.451	 -0.227	 -9.797	 -0.003	  0.002	  0.002	 19.500	 100.028	  0.145
61996	  0.086	  0.207	  0.403	  0.472	 -0.130	 -9.784	 -0.003	  0.002	  0.005	 19.500	 100.017	  1.088
62046	  0.086	  0.208	  0.408	  0.486	 -0.149	 -9.799	 -0.004	  0.002	  0.006	 19.500	 100.032	 -0.198
62096	  0.085	  0.210	  0.407	  0.498	 -0.160	 -9.761	 -0.003	  0.003	  0.004	 19.500	 100.028	  0.145
62146	  0.085	  0.204	  0.404	  0.475	 -0.138	 -9.751	 -0.004	  0.003	  0.002	 19.500	 100.017	  1.088
62196	  0.085	  0.204	  0.403	  0.466	 -0.140	 -9.766	 -0.004	  0.001	  0.004	 19.500	 100.028	  0.145
62246	  0.086	  0.204	  0.405	  0.488	 -0.199	 -9.778	 -0.003	  0.001	  0.003	 19.500	 100.017	  1.088
62296	  0.085	  0.208	  0.405	  0.468	 -0.169	 -9.719	 -0.004	  0.002	  0.001	 19.500	 100.017	  1.088
62346	  0.086	  0.206	  0.410	  0.451	 -0.166	 -9.779	 -0.002	  0.001	  0.005	 19.500	 100.028	  0.145
62396	  0.086	  0.210	  0.406	  0.463	 -0.175	 -9.797	 -0.004	  0.003	  0.006	 19.500	 100.028	  0.145
62446	  0.084	  0.209	  0.400	  0.466	 -0.163	 -9.775	 -0.005	  0.004	  0.004	 19.500	 100.028	  0.145
62496	  0.084	  0.212	  0.408	  0.458	 -0.184	 -9.771	 -0.004	  0.003	  0.006	 19.500	 100.028	  0.145
62546	  0.085	  0.206	  0.405	  0.463	 -0.166	 -9.810	 -0.004	  0.004	  0.005	 19.500	 100.028	  0.145
62596	  0.086	  0.205	  0.410	  0.496	 -0.128	 -9.747	 -0.004	  0.002	  0.004	 19.500	 100.028	  0.145
62646	  0.084	  0.206	  0.403	  0.449	 -0.176	 -9.786	 -0.005	  0.002	  0.005	 19.500	 100.017	  1.088
62696	  0.086	  0.208	  0.405	  0.491	 -0.156	 -9.783	 -0.003	  0.002	  0.003	 19.500	 100.028	  0.145
62745	  0.085	  0.205	  0.406	  0.451	 -0.152	 -9.782	 -0.002	  0.002	  0.005	 19.500	 100.028	  0.145
62795	  0.083	  0.209	  0.406	  0.446	 -0.187	 -9.790	 -0.003	  0.002	  0.004	 19.500	 100.028	  0.145
62845	  0.084	  0.214	  0.406	  0.463	 -0.179	 -9.768	 -0.002	  0.003	  0.004	 19.500	 100.006	  2.031
62895	  0.087	  0.206	  0.407	  0.457	 -0.140	 -9.796	 -0.003	  0.002	  0.004	 19.500	 100.028	  0.145
62945	  0.083	  0.205	  0.401	  0.447	 -0.171	 -9.797	 -0.004	  0.003	  0.007	 19.500	 100.028	  0.145
62995	  0.086	  0.208	  0.408	  0.479	 -0.183	 -9.739	 -0.004	  0.002	  0.003	 19.500	 100.028	  0.145
63045	  0.084	  0.211	  0.408	  0.462	 -0.163	 -9.783	 -0.003	  0.002	  0.003	 19.500	 100.039	 -0.798
63095	  0.085	  0.211	  0.408	  0.469	 -0.152	 -9.782	 -0.004	  0.003	  0.005	 19.500	 100.032	 -0.198
63145	  0.086	  0.203	  0.407	  0.506	 -0.171	 -9.784	 -0.003	  0.001	  0.004	 19.500	 100.043	 -1.141
63195	  0.085	  0.208	  0.407	  0.473	 -0.145	 -9.808	 -0.002	 -0.000	  0.002	 19.500	 100.028	  0.145
63245	  0.086	  0.204	  0.407	  0.452	 -0.139	 -9.788	 -0.003	  0.001	  0.006	 19.500	 100.021	  0.744
63295	  0.085	  0.214	  0.405	  0.459	 -0.196	 -9.747	 -0.002	  0.002	  0.003	 19.500	 100.032	 -0.198
63345	  0.086	  0.205	  0.407	  0.443	 -0.156	 -9.770	 -0.004	  0.003	  0.002	 19.500	 100.028	  0.145
63395	  0.083	  0.207	  0.406	  0.460	 -0.151	 -9.783	 -0.003	  0.003	  0.008	 19.500	 100.017	  1.088
63445	  0.085	  0.205	  0.401	  0.493	 -0.176	 -9.791	 -0.002	  0.002	  0.005	 19.500	 100.028	  0.145
63495	  0.086	  0.211	  0.405	  0.473	 -0.152	 -9.763	 -0.004	  0.003	  0.001	 19.500	 100.028	  0.145
63545	  0.086	  0.206	  0.408	  0.443	 -0.144	 -9.757	 -0.003	  0.001	  0.006	 19.500	 100.032	 -0.198
63595	  0.086	  0.206	  0.403	  0.493	 -0.150	 -9.760	 -0.003	  0.002	  0.007	 19.500	 100.028	  0.145
63645	  0.085	  0.208	  0.408	  0.460	 -0.183	 -9.789	 -0.002	  0.003	 -0.000	 19.500	 100.023	  0.573
63695	  0.084	  0.212	  0.409	  0.471	 -0.177	 -9.787	 -0.002	  0.000	  0.003	 19.500	 100.032	 -0.198
63745	  0.083	  0.212	  0.405	  0.466	 -0.129	 -9.775	 -0.003	  0.001	  0.007	 19.500	 100.028	  0.145
63795	  0.086	  0.208	  0.406	  0.483	 -0.207	 -9.791	 -0.004	  0.001	  0.004	 19.500	 100.028	  0.145
63845	  0.085	  0.209	  0.401	  0.462	 -0.182	 -9.768	 -0.004	  0.002	 -0.001	 19.500	 100.032	 -0.198
63895	  0.086	  0.209	  0.409	  0.431	 -0.171	 -9.787	 -0.005	  0.002	  0.005	 19.500	 100.039	 -0.798
63945	  0.086	  0.207	  0.407	  0.491	 -0.196	 -9.779	 -0.004	  0.003	  0.004	 19.500	 100.032	 -0.198
63995	  0.085	  0.208	  0.410	  0.493	 -0.136	 -9.757	 -0.003	  0.002	 -0.003	 19.500	 100.039	 -0.798
64045	  0.084	  0.210	  0.408	  0.445	 -0.118	 -9.805	 -0.003	  0.001	  0.005	 19.500	 100.017	  1.088
64095	  0.084	  0.209	  0.405	  0.465	 -0.173	 -9.788	 -0.004	  0.003	  0.007	 19.500	 100.032	 -0.198
64145	  0.084	  0.205	  0.406	  0.462	 -0.140	 -9.791	 -0.001	  0.004	 -0.001	 19.500	 100.039	 -0.798
64195	  0.082	  0.201	  0.406	  0.398	 -0.139	 -9.790	 -0.001	  0.005	  0.003	 19.500	 100.032	 -0.198
64245	  0.079	  0.201	  0.400	  0.454	 -0.165	 -9.776	 -0.001	  0.008	  0.015	 19.500	 100.043	 -1.141
64295	  0.076	  0.204	  0.404	  0.553	 -0.216	 -9.760	 -0.002	  0.008	  0.004	 19.500	 100.021	  0.744
64345	  0.075	  0.200	  0.400	  0.446	 -0.207	 -9.774	 -0.002	  0.006	  0.004	 19.500	 100.039	 -0.798
64395	  0.075	  0.204	  0.404	  0.538	 -0.211	 -9.774	 -0.004	  0.004	  0.013	 19.500	 100.021	  0.744
64445	  0.075	  0.197	  0.400	  0.606	 -0.218	 -9.774	 -0.005	  0.000	  0.001	 19.500	 100.032	 -0.198
64495	  0.074	  0.198	  0.403	  0.479	 -0.183	 -9.754	 -0.004	 -0.002	 -0.010	 19.500	 100.021	  0.744
64545	  0.076	  0.196	  0.403	  0.420	 -0.104	 -9.773	 -0.005	 -0.001	  0.007	 19.500	 100.021	  0.744
64595	  0.074	  0.198	  0.401	  0.481	 -0.145	 -9.743	 -0.004	 -0.000	  0.003	 19.500	 100.032	 -0.198
64645	  0.075	  0.196	  0.399	  0.374	 -0.171	 -9.801	 -0.002	  0.001	 -0.005	 19.500	 100.032	 -0.198
64695	  0.074	  0.199	  0.396	  0.368	 -0.114	 -9.769	 -0.001	  0.005	  0.010	 19.500	 100.032	 -0.198
64745	  0.072	  0.194	  0.393	  0.488	 -0.174	 -9.794	 -0.002	  0.007	  0.015	 19.500	 100.021	  0.744
64795	  0.072	  0.194	  0.394	  0.506	 -0.231	 -9.756	 -0.002	  0.005	  0.001	 19.500	 100.017	  1.088
64845	  0.073	  0.188	  0.394	  0.474	 -0.162	 -9.749	 -0.003	  0.005	  0.004	 19.500	 100.032	 -0.198
64895	  0.073	  0.187	  0.391	  0.569	 -0.213	 -9.758	 -0.004	  0.002	  0.010	 19.500	 100.032	 -0.198
64945	  0.077	  0.192	  0.396	  0.549	 -0.230	 -9.800	 -0.005	 -0.001	 -0.004	 19.500	 100.032	 -0.198
64995	  0.077	  0.186	  0.395	  0.485	 -0.132	 -9.777	 -0.005	 -0.001	 -0.006	 19.500	 100.032	 -0.198
65045	  0.078	  0.187	  0.392	  0.421	 -0.107	 -9.772	 -0.003	 -0.002	  0.005	 19.500	 100.032	 -0.198
65095	  0.078	  0.183	  0.396	  0.433	 -0.162	 -9.773	 -0.003	 -0.001	  0.002	 19.500	 100.028	  0.145
65145	  0.078	  0.185	  0.392	  0.396	 -0.099	 -9.784	 -0.003	  0.003	 -0.001	 19.500	 100.028	  0.145
65195	  0.080	  0.182	  0.394	  0.401	 -0.145	 -9.804	 -0.001	  0.005	  0.013	 19.500	 100.043	 -1.141
65245	  0.080	  0.183	  0.392	  0.495	 -0.216	 -9.797	 -0.001	  0.006	  0.013	 19.500	 100.032	 -0.198
65295	  0.080	  0.184	  0.387	  0.533	 -0.175	 -9.810	 -0.003	  0.005	  0.002	 19.500	 100.021	  0.744
65345	  0.078	  0.182	  0.394	  0.499	 -0.154	 -9.782	 -0.002	  0.003	  0.009	 19.500	 100.032	 -0.198
65395	  0.079	  0.183	  0.389	  0.538	 -0.233	 -9.791	 -0.004	  0.001	  0.007	 19.500	 100.021	  0.744
65445	  0.079	  0.185	  0.394	  0.549	 -0.185	 -9.755	 -0.005	 -0.002	 -0.006	 19.500	 100.032	 -0.198
65495	  0.081	  0.181	  0.394	  0.412	 -0.127	 -9.783	 -0.005	 -0.002	 -0.002	 19.500	 100.017	  1.088
65545	  0.080	  0.183	  0.391	  0.445	 -0.155	 -9.783	 -0.004	 -0.000	  0.007	 19.500	 100.032	 -0.198
65595	  0.081	  0.181	  0.393	  0.447	 -0.140	 -9.749	 -0.003	  0.003	 -0.001	 19.500	 100.032	 -0.198
65645	  0.079	  0.181	  0.395	  0.365	 -0.131	 -9.760	 -0.002	  0.004	  0.003	 19.500	 100.028	  0.145
65695	  0.082	  0.182	  0.389	  0.442	 -0.157	 -9.763	 -0.001	  0.007	  0.014	 19.500	 100.032	 -0.198
65745	  0.082	  0.183	  0.394	  0.541	 -0.199	 -9.776	 -0.001	  0.005	  0.008	 19.500	 100.043	 -1.141
65795	  0.082	  0.188	  0.395	  0.505	 -0.154	 -9.738	 -0.002	  0.003	  0.002	 19.500	 100.043	 -1.141
65845	  0.081	  0.181	  0.389	  0.500	 -0.157	 -9.757	 -0.002	  0.002	  0.008	 19.500	 100.021	  0.744
65895	  0.081	  0.184	  0.393	  0.548	 -0.223	 -9.735	 -0.004	 -0.001	  0.002	 19.500	 100.032	 -0.198
65945	  0.081	  0.187	  0.391	  0.465	 -0.189	 -9.811	 -0.004	 -0.002	 -0.005	 19.500	 100.032	 -0.198
65995	  0.081	  0.183	  0.390	  0.403	 -0.146	 -9.802	 -0.005	 -0.000	  0.004	 19.500	 100.032	 -0.198
66045	  0.081	  0.183	  0.392	  0.466	 -0.159	 -9.795	 -0.003	  0.001	  0.004	 19.500	 100.021	  0.744
66095	  0.078	  0.185	  0.387	  0.400	 -0.157	 -9.749	 -0.002	  0.004	  0.002	 19.500	 100.017	  1.088
66145	  0.079	  0.183	  0.392	  0.386	 -0.109	 -9.780	 -0.003	  0.006	  0.008	 19.500	 100.021	  0.744
66195	  0.076	  0.190	  0.388	  0.473	 -0.149	 -9.747	 -0.001	  0.006	  0.014	 19.500	 100.032	 -0.198
66245	  0.078	  0.183	  0.392	  0.499	 -0.218	 -9.763	 -0.003	  0.005	  0.004	 19.500	 100.032	 -0.198
66295	  0.079	  0.182	  0.388	  0.491	 -0.152	 -9.787	 -0.002	  0.002	  0.002	 19.500	 100.032	 -0.198
66345	  0.078	  0.188	  0.389	  0.513	 -0.160	 -9.750	 -0.003	  0.001	  0.008	 19.500	 100.028	  0.145
66395	  0.078	  0.188	  0.393	  0.524	 -0.216	 -9.805	 -0.004	 -0.001	 -0.000	 19.500	 100.032	 -0.198
66445	  0.079	  0.184	  0.394	  0.476	 -0.163	 -9.804	 -0.005	 -0.001	 -0.005	 19.500	 100.032	 -0.198
66495	  0.078	  0.185	  0.387	  0.432	 -0.156	 -9.765	 -0.003	  0.000	  0.006	 19.500	 100.021	  0.744
66545	  0.079	  0.184	  0.395	  0.434	 -0.173	 -9.795	 -0.004	  0.003	  0.004	 19.500	 100.032	 -0.198
66595	  0.077	  0.184	  0.387	  0.434	 -0.139	 -9.788	 -0.004	  0.005	 -0.000	 19.500	 100.032	 -0.198
66645	  0.078	  0.184	  0.391	  0.444	 -0.157	 -9.803	 -0.003	  0.006	  0.011	 19.500	 100.043	 -1.141
66695	  0.079	  0.184	  0.391	  0.487	 -0.187	 -9.789	 -0.002	  0.006	  0.010	 19.500	 100.036	 -0.542
66745	  0.079	  0.186	  0.391	  0.538	 -0.164	 -9.775	 -0.001	  0.004	  0.004	 19.500	 100.043	 -1.141
66795	  0.080	  0.181	  0.394	  0.480	 -0.154	 -9.756	 -0.004	  0.001	  0.002	 19.500	 100.032	 -0.198
66845	  0.079	  0.184	  0.383	  0.497	 -0.198	 -9.798	 -0.004	  0.000	  0.005	 19.500	 100.032	 -0.198
66895	  0.078	  0.181	  0.389	  0.521	 -0.211	 -9.792	 -0.005	 -0.001	 -0.003	 19.500	 100.032	 -0.198
66945	  0.079	  0.184	  0.394	  0.427	 -0.142	 -9.793	 -0.004	 -0.001	 -0.001	 19.500	 100.032	 -0.198
66995	  0.079	  0.190	  0.388	  0.453	 -0.172	 -9.790	 -0.005	  0.001	  0.007	 19.500	 100.021	  0.744
67046	  0.080	  0.184	  0.393	  0.438	 -0.174	 -9.764	 -0.003	  0.004	  0.004	 19.500	 100.032	 -0.198
67096	  0.081	  0.185	  0.393	  0.428	 -0.153	 -9.806	 -0.002	  0.005	  0.006	 19.500	 100.032	 -0.198
67146	  0.081	  0.184	  0.394	  0.462	 -0.162	 -9.776	 -0.002	  0.007	  0.011	 19.500	 100.032	 -0.198
67195	  0.083	  0.188	  0.393	  0.536	 -0.186	 -9.755	 -0.002	  0.005	  0.008	 19.500	 100.032	 -0.198
67246	  0.080	  0.186	  0.394	  0.507	 -0.179	 -9.778	 -0.002	  0.003	  0.001	 19.500	 100.036	 -0.542
67296	  0.081	  0.184	  0.394	  0.502	 -0.166	 -9.754	 -0.003	  0.001	  0.004	 19.500	 100.021	  0.744
67346	  0.080	  0.186	  0.392	  0.516	 -0.180	 -9.768	 -0.003	 -0.001	  0.003	 19.500	 100.036	 -0.542
67396	  0.082	  0.186	  0.387	  0.466	 -0.210	 -9.753	 -0.006	 -0.001	 -0.000	 19.500	 100.021	  0.744
67446	  0.083	  0.184	  0.390	  0.424	 -0.155	 -9.817	 -0.005	  0.000	  0.002	 19.500	 100.036	 -0.542
67496	  0.082	  0.188	  0.385	  0.418	 -0.143	 -9.769	 -0.005	  0.001	  0.006	 19.500	 100.032	 -0.198
67546	  0.080	  0.185	  0.394	  0.435	 -0.162	 -9.786	 -0.003	  0.004	  0.002	 19.500	 100.032	 -0.198
67596	  0.082	  0.188	  0.395	  0.437	 -0.122	 -9.753	 -0.004	  0.005	  0.005	 19.500	 100.032	 -0.198
67646	  0.082	  0.190	  0.394	  0.473	 -0.153	 -9.802	 -0.001	  0.005	  0.011	 19.500	 100.021	  0.744
67696	  0.081	  0.189	  0.393	  0.519	 -0.192	 -9.761	 -0.002	  0.005	  0.004	 19.500	 100.032	 -0.198
67746	  0.081	  0.188	  0.393	  0.512	 -0.178	 -9.726	 -0.004	  0.002	  0.002	 19.500	 100.032	 -0.198
67796	  0.082	  0.184	  0.390	  0.474	 -0.174	 -9.788	 -0.003	 -0.000	  0.004	 19.500	 100.021	  0.744
67846	  0.079	  0.190	  0.394	  0.486	 -0.189	 -9.779	 -0.003	 -0.001	  0.001	 19.500	 100.021	  0.744
67896	  0.078	  0.188	  0.388	  0.468	 -0.169	 -9.747	 -0.004	  0.000	 -0.003	 19.500	 100.032	 -0.198
67946	  0.079	  0.187	  0.387	  0.405	 -0.153	 -9.793	 -0.005	  0.001	  0.004	 19.500	 100.032	 -0.198
67996	  0.082	  0.185	  0.392	  0.445	 -0.177	 -9.792	 -0.005	  0.004	  0.005	 19.500	 100.032	 -0.198
68046	  0.080	  0.190	  0.391	  0.444	 -0.149	 -9.776	 -0.004	  0.004	  0.003	 19.500	 100.032	 -0.198
68096	  0.081	  0.185	  0.391	  0.453	 -0.149	 -9.788	 -0.002	  0.005	  0.008	 19.500	 100.032	 -0.198
68146	  0.078	  0.187	  0.387	  0.502	 -0.155	 -9.774	 -0.002	  0.004	  0.009	 19.500	 100.021	  0.744
68196	  0.080	  0.186	  0.388	  0.525	 -0.192	 -9.780	 -0.002	  0.004	  0.002	 19.500	 100.032	 -0.198
68246	  0.079	  0.188	  0.392	  0.474	 -0.176	 -9.765	 -0.002	  0.001	  0.003	 19.500	 100.032	 -0.198
68296	  0.078	  0.191	  0.391	  0.514	 -0.209	 -9.790	 -0.003	 -0.000	  0.003	 19.500	 100.021	  0.744
68346	  0.079	  0.188	  0.394	  0.454	 -0.205	 -9.789	 -0.005	 -0.001	 -0.001	 19.500	 100.032	 -0.198
68396	  0.081	  0.189	  0.392	  0.430	 -0.187	 -9.767	 -0.006	 -0.000	  0.001	 19.500	 100.021	  0.744
68446	  0.081	  0.192	  0.394	  0.446	 -0.141	 -9.784	 -0.004	  0.002	  0.005	 19.500	 100.021	  0.744
68496	  0.077	  0.187	  0.389	  0.486	 -0.174	 -9.765	 -0.004	  0.004	  0.005	 19.500	 100.032	 -0.198
68546	  0.078	  0.189	  0.391	  0.459	 -0.137	 -9.765	 -0.004	  0.005	  0.005	 19.500	 100.021	  0.744
68596	  0.079	  0.186	  0.392	  0.466	 -0.147	 -9.786	 -0.001	  0.005	  0.008	 19.500	 100.032	 -0.198
68646	  0.081	  0.184	  0.391	  0.515	 -0.195	 -9.761	 -0.002	  0.003	  0.005	 19.500	 100.032	 -0.198
68696	  0.078	  0.185	  0.387	  0.504	 -0.181	 -9.761	 -0.002	  0.001	  0.002	 19.500	 100.036	 -0.542
68746	  0.079	  0.186	  0.387	  0.500	 -0.207	 -9.815	 -0.002	  0.001	  0.002	 19.500	 100.032	 -0.198
68796	  0.079	  0.186	  0.385	  0.477	 -0.193	 -9.789	 -0.003	 -0.001	  0.004	 19.500	 100.032	 -0.198
68846	  0.078	  0.186	  0.394	  0.428	 -0.176	 -9.798	 -0.005	  0.001	  0.001	 19.500	 100.025	  0.402
68896	  0.080	  0.188	  0.394	  0.426	 -0.142	 -9.772	 -0.005	  0.000	  0.003	 19.500	 100.032	 -0.198
68946	  0.079	  0.190	  0.392	  0.444	 -0.150	 -9.757	 -0.004	  0.004	  0.005	 19.500	 100.032	 -0.198
68996	  0.079	  0.184	  0.392	  0.452	 -0.165	 -9.798	 -0.004	  0.004	  0.003	 19.500	 100.032	 -0.198
69046	  0.078	  0.185	  0.387	  0.494	 -0.141	 -9.770	 -0.003	  0.005	  0.005	 19.500	 100.021	  0.744
69096	  0.079	  0.188	  0.392	  0.498	 -0.141	 -9.751	 -0.002	  0.004	  0.008	 19.500	 100.032	 -0.198
69146	  0.079	  0.186	  0.392	  0.535	 -0.184	 -9.790	 -0.001	  0.002	  0.005	 19.500	 100.032	 -0.198
69196	  0.077	  0.187	  0.392	  0.503	 -0.173	 -9.764	 -0.002	  0.001	  0.002	 19.500	 100.032	 -0.198
69246	  0.079	  0.186	  0.388	  0.469	 -0.156	 -9.799	 -0.003	  0.000	  0.003	 19.500	 100.036	 -0.542
69296	  0.080	  0.192	  0.391	  0.489	 -0.196	 -9.777	 -0.005	  0.001	  0.002	 19.500	 100.036	 -0.542
69346	  0.079	  0.187	  0.389	  0.478	 -0.182	 -9.770	 -0.005	  0.000	  0.000	 19.500	 100.036	 -0.542
69396	  0.078	  0.185	  0.392	  0.417	 -0.152	 -9.784	 -0.003	  0.003	  0.003	 19.500	 100.036	 -0.542
69446	  0.078	  0.185	  0.385	  0.453	 -0.152	 -9.768	 -0.005	  0.003	  0.006	 19.500	 100.025	  0.402
69496	  0.079	  0.185	  0.389	  0.481	 -0.149	 -9.776	 -0.003	  0.005	  0.004	 19.500	 100.043	 -1.141
69546	  0.076	  0.186	  0.391	  0.462	 -0.146	 -9.779	 -0.002	  0.004	  0.006	 19.500	 100.021	  0.744
69595	  0.077	  0.190	  0.390	  0.501	 -0.181	 -9.759	 -0.001	  0.004	  0.007	 19.500	 100.021	  0.744
69645	  0.079	  0.185	  0.392	  0.513	 -0.188	 -9.772	 -0.001	  0.001	  0.003	 19.500	 100.036	 -0.542
69695	  0.078	  0.186	  0.389	  0.479	 -0.188	 -9.783	 -0.004	  0.001	  0.002	 19.500	 100.021	  0.744
69745	  0.079	  0.188	  0.394	  0.478	 -0.173	 -9.788	 -0.005	  0.000	  0.003	 19.500	 100.036	 -0.542
69795	  0.077	  0.186	  0.394	  0.458	 -0.195	 -9.781	 -0.004	  0.001	  0.002	 19.500	 100.036	 -0.542
69845	  0.079	  0.185	  0.389	  0.443	 -0.168	 -9.748	 -0.004	  0.002	  0.002	 19.500	 100.021	  0.744
69895	  0.079	  0.184	  0.392	  0.432	 -0.128	 -9.770	 -0.006	  0.003	  0.006	 19.500	 100.025	  0.402
69945	  0.078	  0.186	  0.392	  0.483	 -0.137	 -9.812	 -0.003	  0.005	  0.006	 19.500	 100.025	  0.402
69995	  0.080	  0.185	  0.387	  0.459	 -0.152	 -9.773	 -0.003	  0.005	  0.005	 19.500	 100.025	  0.402
70045	  0.080	  0.190	  0.393	  0.490	 -0.133	 -9.756	 -0.002	  0.003	  0.006	 19.500	 100.036	 -0.542
70095	  0.076	  0.185	  0.387	  0.517	 -0.188	 -9.785	 -0.001	  0.002	  0.006	 19.500	 100.025	  0.402
70145	  0.080	  0.184	  0.393	  0.503	 -0.210	 -9.779	 -0.002	  0.002	  0.003	 19.500	 100.025	  0.402
70195	  0.078	  0.187	  0.393	  0.485	 -0.195	 -9.777	 -0.002	  0.001	  0.003	 19.500	 100.032	 -0.198
70245	  0.079	  0.185	  0.387	  0.458	 -0.205	 -9.788	 -0.004	  0.000	  0.005	 19.500	 100.032	 -0.198
70295	  0.079	  0.186	  0.394	  0.473	 -0.182	 -9.778	 -0.006	  0.000	  0.003	 19.500	 100.025	  0.402
70345	  0.075	  0.186	  0.391	  0.425	 -0.147	 -9.770	 -0.005	  0.002	  0.004	 19.500	 100.025	  0.402
70395	  0.076	  0.184	  0.391	  0.455	 -0.138	 -9.783	 -0.005	  0.005	  0.006	 19.500	 100.021	  0.744
70445	  0.079	  0.186	  0.393	  0.478	 -0.160	 -9.765	 -0.003	  0.004	  0.005	 19.500	 100.036	 -0.542
70495	  0.081	  0.186	  0.390	  0.488	 -0.144	 -9.777	 -0.002	  0.004	  0.005	 19.500	 100.036	 -0.542
70545	  0.077	  0.185	  0.387	  0.509	 -0.157	 -9.762	 -0.002	  0.004	  0.006	 19.500	 100.021	  0.744
70595	  0.079	  0.184	  0.386	  0.467	 -0.202	 -9.746	 -0.002	  0.002	  0.003	 19.500	 100.025	  0.402
70645	  0.078	  0.186	  0.391	  0.482	 -0.185	 -9.745	 -0.002	  0.000	  0.001	 19.500	 100.036	 -0.542
70695	  0.079	  0.188	  0.391	  0.470	 -0.192	 -9.780	 -0.002	 -0.000	  0.002	 19.500	 100.021	  0.744
70745	  0.079	  0.185	  0.388	  0.452	 -0.188	 -9.784	 -0.004	  0.002	  0.003	 19.500	 100.036	 -0.542
70795	  0.078	  0.184	  0.392	  0.435	 -0.171	 -9.769	 -0.005	  0.001	  0.002	 19.500	 100.032	 -0.198
70845	  0.079	  0.192	  0.393	  0.454	 -0.140	 -9.769	 -0.004	  0.003	  0.004	 19.500	 100.025	  0.402
70895	  0.078	  0.189	  0.392	  0.475	 -0.160	 -9.768	 -0.002	  0.003	  0.005	 19.500	 100.010	  1.687
70945	  0.079	  0.192	  0.391	  0.480	 -0.137	 -9.800	 -0.002	  0.003	  0.005	 19.500	 100.036	 -0.542
70995	  0.080	  0.187	  0.391	  0.482	 -0.153	 -9.736	 -0.002	  0.002	  0.006	 19.500	 100.025	  0.402
71045	  0.080	  0.184	  0.390	  0.491	 -0.151	 -9.792	 -0.002	  0.002	  0.006	 19.500	 100.036	 -0.542
71095	  0.078	  0.185	  0.393	  0.488	 -0.187	 -9.776	 -0.002	  0.002	  0.003	 19.500	 100.025	  0.402
71145	  0.078	  0.190	  0.391	  0.448	 -0.175	 -9.784	 -0.003	  0.000	  0.001	 19.500	 100.021	  0.744
71195	  0.076	  0.189	  0.388	  0.469	 -0.190	 -9.788	 -0.004	  0.002	  0.003	 19.500	 100.036	 -0.542
71245	  0.080	  0.185	  0.390	  0.452	 -0.190	 -9.778	 -0.005	  0.001	  0.003	 19.500	 100.025	  0.402
71295	  0.080	  0.185	  0.387	  0.448	 -0.174	 -9.762	 -0.004	  0.002	  0.004	 19.500	 100.021	  0.744
71345	  0.079	  0.184	  0.393	  0.430	 -0.150	 -9.791	 -0.004	  0.004	  0.005	 19.500	 100.025	  0.402
71395	  0.079	  0.184	  0.386	  0.485	 -0.143	 -9.775	 -0.003	  0.005	  0.006	 19.500	 100.025	  0.402
71445	  0.077	  0.185	  0.387	  0.485	 -0.162	 -9.754	 -0.003	  0.006	  0.005	 19.500	 100.036	 -0.542
71495	  0.077	  0.186	  0.393	  0.497	 -0.165	 -9.778	 -0.001	  0.002	  0.005	 19.500	 100.025	  0.402
71545	  0.079	  0.189	  0.389	  0.502	 -0.196	 -9.754	 -0.002	  0.000	  0.003	 19.500	 100.025	  0.402
71595	  0.079	  0.187	  0.392	  0.489	 -0.193	 -9.810	 -0.003	  0.001	  0.003	 19.500	 100.036	 -0.542
71645	  0.077	  0.187	  0.391	  0.442	 -0.195	 -9.775	 -0.003	  0.001	  0.003	 19.500	 100.025	  0.402
71695	  0.080	  0.184	  0.393	  0.470	 -0.174	 -9.761	 -0.005	  0.003	  0.004	 19.500	 100.021	  0.744
71745	  0.079	  0.187	  0.388	  0.456	 -0.175	 -9.782	 -0.004	  0.003	  0.001	 19.500	 100.036	 -0.542
71795	  0.077	  0.187	  0.392	  0.478	 -0.147	 -9.764	 -0.004	  0.003	  0.003	 19.500	 100.025	  0.402
71845	  0.077	  0.188	  0.394	  0.481	 -0.158	 -9.763	 -0.003	  0.004	  0.006	 19.500	 100.025	  0.402
71895	  0.077	  0.184	  0.389	  0.486	 -0.163	 -9.780	 -0.004	  0.003	  0.005	 19.500	 100.025	  0.402
71945	  0.076	  0.187	  0.386	  0.485	 -0.157	 -9.788	 -0.002	  0.003	  0.004	 19.500	 100.021	  0.744
71995	  0.078	  0.184	  0.392	  0.496	 -0.152	 -9.765	 -0.000	  0.002	  0.005	 19.500	 100.014	  1.345
72045	  0.076	  0.191	  0.389	  0.484	 -0.179	 -9.774	 -0.002	  0.002	  0.003	 19.500	 100.036	 -0.542
72095	  0.079	  0.184	  0.387	  0.474	 -0.195	 -9.795	 -0.003	  0.000	  0.003	 19.500	 100.036	 -0.542
72145	  0.080	  0.185	  0.389	  0.470	 -0.177	 -9.772	 -0.004	  0.001	  0.004	 19.500	 100.021	  0.744
72195	  0.078	  0.187	  0.391	  0.476	 -0.162	 -9.796	 -0.004	  0.002	  0.004	 19.500	 100.025	  0.402
72245	  0.078	  0.187	  0.393	  0.485	 -0.170	 -9.763	 -0.005	  0.003	  0.002	 19.500	 100.032	 -0.198
72295	  0.077	  0.184	  0.392	  0.464	 -0.147	 -9.796	 -0.004	  0.003	  0.005	 19.500	 100.041	 -0.970
72345	  0.080	  0.183	  0.389	  0.467	 -0.145	 -9.746	 -0.003	  0.004	  0.006	 19.500	 100.036	 -0.542
72395	  0.078	  0.184	  0.394	  0.487	 -0.175	 -9.744	 -0.001	  0.003	  0.004	 19.500	 100.025	  0.402
72446	  0.079	  0.185	  0.393	  0.495	 -0.164	 -9.805	 -0.002	  0.002	  0.004	 19.500	 100.036	 -0.542
72495	  0.078	  0.188	  0.392	  0.471	 -0.188	 -9.777	 -0.003	  0.001	  0.006	 19.500	 100.025	  0.402
72545	  0.078	  0.186	  0.392	  0.494	 -0.211	 -9.796	 -0.003	  0.001	  0.003	 19.500	 100.036	 -0.542
72595	  0.078	  0.187	  0.389	  0.439	 -0.187	 -9.766	 -0.005	  0.000	  0.001	 19.500	 100.025	  0.402
72645	  0.079	  0.184	  0.393	  0.469	 -0.175	 -9.777	 -0.003	  0.003	  0.004	 19.500	 100.036	 -0.542
72695	  0.079	  0.186	  0.388	  0.453	 -0.169	 -9.752	 -0.005	  0.003	  0.002	 19.500	 100.025	  0.402
72746	  0.081	  0.194	  0.389	  0.479	 -0.160	 -9.775	 -0.003	  0.002	  0.003	 19.500	 100.036	 -0.542
72795	  0.079	  0.186	  0.391	  0.488	 -0.146	 -9.778	 -0.003	  0.003	  0.005	 19.500	 100.025	  0.402
72845	  0.078	  0.186	  0.387	  0.476	 -0.161	 -9.755	 -0.003	  0.003	  0.003	 19.500	 100.025	  0.402
72895	  0.077	  0.188	  0.394	  0.484	 -0.154	 -9.748	 -0.002	  0.003	  0.005	 19.500	 100.036	 -0.542
72946	  0.076	  0.195	  0.391	  0.488	 -0.165	 -9.763	 -0.002	  0.003	  0.005	 19.500	 100.025	  0.402
72996	  0.081	  0.185	  0.393	  0.473	 -0.212	 -9.767	 -0.001	  0.002	  0.004	 19.500	 100.025	  0.402
73046	  0.080	  0.187	  0.393	  0.465	 -0.193	 -9.791	 -0.003	  0.002	  0.004	 19.500	 100.025	  0.402
73096	  0.079	  0.187	  0.394	  0.434	 -0.172	 -9.777	 -0.004	  0.002	  0.003	 19.500	 100.041	 -0.970
73146	  0.077	  0.186	  0.389	  0.467	 -0.179	 -9.776	 -0.005	  0.004	  0.002	 19.500	 100.025	  0.402
73196	  0.079	  0.185	  0.391	  0.468	 -0.155	 -9.794	 -0.005	  0.003	  0.003	 19.500	 100.036	 -0.542
73246	  0.079	  0.187	  0.385	  0.472	 -0.151	 -9.780	 -0.005	  0.003	  0.004	 19.500	 100.036	 -0.542
73296	  0.079	  0.185	  0.393	  0.493	 -0.138	 -9.755	 -0.003	  0.003	  0.005	 19.500	 100.025	  0.402
73346	  0.080	  0.183	  0.387	  0.481	 -0.149	 -9.772	 -0.002	  0.003	  0.004	 19.500	 100.036	 -0.542
73396	  0.079	  0.185	  0.393	  0.469	 -0.163	 -9.781	 -0.001	  0.001	  0.005	 19.500	 100.025	  0.402
73446	  0.079	  0.194	  0.393	  0.494	 -0.192	 -9.767	 -0.001	  0.002	  0.006	 19.500	 100.030	 -0.027
73495	  0.079	  0.188	  0.386	  0.484	 -0.169	 -9.790	 -0.003	  0.002	  0.004	 19.500	 100.030	 -0.027
73545	  0.078	  0.186	  0.391	  0.479	 -0.165	 -9.767	 -0.004	  0.001	  0.003	 19.500	 100.041	 -0.970
73595	  0.079	  0.184	  0.391	  0.465	 -0.167	 -9.762	 -0.005	  0.002	  0.004	 19.500	 100.025	  0.402
73645	  0.081	  0.189	  0.393	  0.461	 -0.159	 -9.785	 -0.005	  0.003	  0.004	 19.500	 100.030	 -0.027
73695	  0.078	  0.186	  0.391	  0.468	 -0.163	 -9.800	 -0.004	  0.004	  0.004	 19.500	 100.036	 -0.542
73745	  0.077	  0.184	  0.393	  0.477	 -0.137	 -9.778	 -0.004	  0.002	  0.004	 19.500	 100.025	  0.402
73795	  0.078	  0.185	  0.392	  0.473	 -0.134	 -9.771	 -0.003	  0.003	  0.005	 19.500	 100.025	  0.402
73845	  0.080	  0.187	  0.389	  0.502	 -0.154	 -9.800	 -0.003	  0.002	  0.003	 19.500	 100.036	 -0.542
73895	  0.080	  0.191	  0.391	  0.471	 -0.165	 -9.792	 -0.002	  0.001	  0.004	 19.500	 100.025	  0.402
73945	  0.080	  0.183	  0.390	  0.461	 -0.174	 -9.762	 -0.002	  0.001	  0.005	 19.500	 100.025	  0.402
73995	  0.077	  0.186	  0.389	  0.485	 -0.175	 -9.769	 -0.003	  0.001	  0.004	 19.500	 100.025	  0.402
74045	  0.078	  0.187	  0.391	  0.469	 -0.185	 -9.761	 -0.005	  0.002	  0.003	 19.500	 100.025	  0.402
74095	  0.078	  0.191	  0.389	  0.445	 -0.204	 -9.773	 -0.007	  0.003	  0.004	 19.500	 100.030	 -0.027
74145	  0.078	  0.190	  0.391	  0.500	 -0.176	 -9.788	 -0.005	  0.003	  0.004	 19.500	 100.025	  0.402
74195	  0.079	  0.184	  0.392	  0.487	 -0.152	 -9.771	 -0.004	  0.003	  0.004	 19.500	 100.030	 -0.027
74245	  0.081	  0.185	  0.391	  0.464	 -0.132	 -9.800	 -0.004	  0.004	  0.003	 19.500	 100.030	 -0.027
74295	  0.077	  0.186	  0.393	  0.480	 -0.147	 -9.756	 -0.003	  0.001	  0.003	 19.500	 100.030	 -0.027
74345	  0.076	  0.191	  0.391	  0.485	 -0.168	 -9.794	 -0.002	  0.002	  0.004	 19.500	 100.030	 -0.027
74395	  0.076	  0.188	  0.390	  0.466	 -0.180	 -9.802	 -0.003	  0.002	  0.003	 19.500	 100.025	  0.402
74445	  0.078	  0.185	  0.391	  0.457	 -0.181	 -9.783	 -0.002	  0.002	  0.004	 19.500	 100.025	  0.402
74495	  0.079	  0.185	  0.391	  0.476	 -0.181	 -9.761	 -0.003	  0.002	  0.004	 19.500	 100.030	 -0.027
74545	  0.080	  0.188	  0.392	  0.436	 -0.185	 -9.781	 -0.005	  0.001	  0.003	 19.500	 100.019	  0.916
74595	  0.080	  0.190	  0.392	  0.474	 -0.148	 -9.796	 -0.004	  0.004	  0.005	 19.500	 100.030	 -0.027
74645	  0.078	  0.191	  0.387	  0.488	 -0.163	 -9.783	 -0.005	  0.003	  0.003	 19.500	 100.025	  0.402
74695	  0.078	  0.187	  0.392	  0.481	 -0.140	 -9.756	 -0.003	  0.002	  0.004	 19.500	 100.025	  0.402
74745	  0.078	  0.185	  0.388	  0.478	 -0.135	 -9.769	 -0.002	  0.002	  0.004	 19.500	 100.030	 -0.027
74795	  0.077	  0.194	  0.389	  0.485	 -0.153	 -9.789	 -0.002	  0.003	  0.004	 19.500	 100.036	 -0.542
74845	  0.078	  0.185	  0.392	  0.478	 -0.170	 -9.780	 -0.003	  0.002	  0.004	 19.500	 100.025	  0.402
74895	  0.079	  0.185	  0.393	  0.458	 -0.167	 -9.787	 -0.003	  0.001	  0.005	 19.500	 100.036	 -0.542
74945	  0.078	  0.184	  0.389	  0.444	 -0.189	 -9.777	 -0.003	  0.001	  0.004	 19.500	 100.030	 -0.027
74995	  0.079	  0.187	  0.391	  0.481	 -0.175	 -9.785	 -0.005	  0.003	  0.003	 19.500	 100.025	  0.402
75045	  0.079	  0.187	  0.391	  0.465	 -0.191	 -9.750	 -0.005	  0.003	  0.003	 19.500	 100.025	  0.402
75095	  0.078	  0.185	  0.391	  0.464	 -0.142	 -9.786	 -0.005	  0.003	  0.005	 19.500	 100.041	 -0.970
75145	  0.078	  0.188	  0.387	  0.497	 -0.151	 -9.768	 -0.005	  0.003	  0.003	 19.500	 100.030	 -0.027
75195	  0.075	  0.192	  0.390	  0.474	 -0.152	 -9.758	 -0.004	  0.004	  0.002	 19.500	 100.030	 -0.027
75245	  0.077	  0.189	  0.395	  0.479	 -0.173	 -9.754	 -0.003	  0.001	  0.004	 19.500	 100.036	 -0.542
75295	  0.080	  0.184	  0.387	  0.472	 -0.167	 -9.791	 -0.002	  0.001	  0.004	 19.500	 100.019	  0.916
75345	  0.078	  0.183	  0.392	  0.459	 -0.190	 -9.802	 -0.002	  0.002	  0.003	 19.500	 100.030	 -0.027
75395	  0.079	  0.192	  0.389	  0.481	 -0.201	 -9.799	 -0.003	  0.002	  0.005	 19.500	 100.014	  1.345
75445	  0.079	  0.190	  0.387	  0.447	 -0.191	 -9.782	 -0.004	  0.002	  0.004	 19.500	 100.025	  0.402
75495	  0.078	  0.192	  0.393	  0.471	 -0.164	 -9.782	 -0.004	  0.003	  0.002	 19.500	 100.025	  0.402
75545	  0.078	  0.188	  0.389	  0.452	 -0.194	 -9.787	 -0.004	  0.003	  0.003	 19.500	 100.041	 -0.970
75595	  0.080	  0.184	  0.394	  0.474	 -0.151	 -9.775	 -0.005	  0.003	  0.003	 19.500	 100.036	 -0.542
75645	  0.079	  0.189	  0.391	  0.479	 -0.138	 -9.764	 -0.005	  0.002	  0.003	 19.500	 100.019	  0.916
75695	  0.078	  0.188	  0.391	  0.471	 -0.142	 -9.782	 -0.003	  0.003	  0.005	 19.500	 100.030	 -0.027
75745	  0.080	  0.184	  0.392	  0.470	 -0.170	 -9.722	 -0.003	  0.001	  0.006	 19.500	 100.030	 -0.027
75795	  0.079	  0.185	  0.385	  0.493	 -0.181	 -9.797	 -0.002	  0.002	  0.003	 19.500	 100.025	  0.402
75845	  0.078	  0.187	  0.391	  0.475	 -0.165	 -9.791	 -0.002	  0.002	  0.006	 19.500	 100.030	 -0.027
75895	  0.077	  0.186	  0.386	  0.472	 -0.176	 -9.758	 -0.003	  0.002	  0.003	 19.500	 100.025	  0.402
75945	  0.078	  0.188	  0.389	  0.472	 -0.175	 -9.748	 -0.002	  0.003	  0.003	 19.500	 100.025	  0.402
75995	  0.079	  0.188	  0.391	  0.480	 -0.168	 -9.792	 -0.005	  0.004	  0.003	 19.500	 100.030	 -0.027
76045	  0.078	  0.188	  0.396	  0.488	 -0.161	 -9.767	 -0.004	  0.003	  0.004	 19.500	 100.030	 -0.027
76095	  0.080	  0.190	  0.393	  0.484	 -0.179	 -9.771	 -0.004	  0.004	  0.004	 19.500	 100.041	 -0.970
76145	  0.080	  0.190	  0.392	  0.461	 -0.141	 -9.781	 -0.003	  0.002	  0.005	 19.500	 100.019	  0.916
76195	  0.077	  0.190	  0.391	  0.471	 -0.157	 -9.773	 -0.003	  0.002	  0.005	 19.500	 100.041	 -0.970
76245	  0.078	  0.190	  0.394	  0.472	 -0.155	 -9.777	 -0.002	  0.002	  0.003	 19.500	 100.025	  0.402
76295	  0.077	  0.185	  0.391	  0.481	 -0.182	 -9.783	 -0.002	  0.002	  0.003	 19.500	 100.030	 -0.027
76345	  0.078	  0.186	  0.386	  0.485	 -0.191	 -9.774	 -0.003	  0.002	  0.004	 19.500	 100.030	 -0.027
76395	  0.078	  0.184	  0.391	  0.462	 -0.170	 -9.768	 -0.003	  0.004	  0.004	 19.500	 100.030	 -0.027
76445	  0.078	  0.186	  0.388	  0.476	 -0.171	 -9.790	 -0.003	  0.003	  0.003	 19.500	 100.019	  0.916
76495	  0.080	  0.187	  0.391	  0.458	 -0.167	 -9.749	 -0.004	  0.003	  0.004	 19.500	 100.030	 -0.027
76545	  0.080	  0.185	  0.392	  0.477	 -0.165	 -9.776	 -0.004	  0.003	  0.005	 19.600	 100.030	 -0.027
76595	  0.079	  0.184	  0.384	  0.479	 -0.171	 -9.804	 -0.005	  0.003	  0.003	 19.500	 100.041	 -0.970
76645	  0.080	  0.186	  0.387	  0.475	 -0.176	 -9.797	 -0.004	  0.001	  0.005	 19.500	 100.041	 -0.970
76695	  0.079	  0.187	  0.392	  0.474	 -0.160	 -9.774	 -0.002	  0.003	  0.005	 19.500	 100.030	 -0.027
76745	  0.078	  0.187	  0.387	  0.454	 -0.177	 -9.772	 -0.002	  0.002	  0.005	 19.500	 100.041	 -0.970
76795	  0.080	  0.187	  0.391	  0.463	 -0.170	 -9.811	 -0.002	  0.001	  0.004	 19.500	 100.030	 -0.027
76845	  0.079	  0.187	  0.391	  0.473	 -0.191	 -9.797	 -0.003	  0.003	  0.005	 19.600	 100.030	 -0.027
76895	  0.079	  0.184	  0.393	  0.461	 -0.189	 -9.766	 -0.003	  0.005	  0.003	 19.500	 100.019	  0.916
76945	  0.079	  0.185	  0.391	  0.494	 -0.185	 -9.777	 -0.005	  0.002	  0.004	 19.500	 100.019	  0.916
76995	  0.079	  0.188	  0.393	  0.470	 -0.162	 -9.787	 -0.004	  0.003	  0.004	 19.500	 100.019	  0.916
77045	  0.077	  0.186	  0.385	  0.481	 -0.154	 -9.783	 -0.004	  0.001	  0.002	 19.500	 100.030	 -0.027
77095	  0.078	  0.186	  0.388	  0.484	 -0.162	 -9.730	 -0.003	  0.001	  0.004	 19.500	 100.014	  1.345
77145	  0.078	  0.190	  0.389	  0.475	 -0.161	 -9.791	 -0.002	  0.003	  0.005	 19.500	 100.030	 -0.027
77195	  0.079	  0.191	  0.395	  0.483	 -0.168	 -9.773	 -0.003	  0.002	  0.005	 19.500	 100.030	 -0.027
77245	  0.077	  0.192	  0.389	  0.463	 -0.185	 -9.766	 -0.002	  0.002	  0.004	 19.500	 100.041	 -0.970
77295	  0.078	  0.186	  0.392	  0.458	 -0.172	 -9.779	 -0.004	  0.002	  0.006	 19.500	 100.030	 -0.027
77345	  0.081	  0.186	  0.390	  0.470	 -0.189	 -9.767	 -0.004	  0.003	  0.006	 19.500	 100.041	 -0.970
77395	  0.079	  0.187	  0.391	  0.479	 -0.176	 -9.739	 -0.003	  0.003	  0.002	 19.500	 100.041	 -0.970
77445	  0.080	  0.186	  0.392	  0.464	 -0.147	 -9.744	 -0.005	  0.002	  0.004	 19.500	 100.030	 -0.027
77495	  0.077	  0.188	  0.389	  0.463	 -0.155	 -9.778	 -0.003	  0.002	  0.004	 19.500	 100.023	  0.573
77545	  0.078	  0.184	  0.393	  0.470	 -0.160	 -9.776	 -0.004	  0.002	  0.003	 19.500	 100.041	 -0.970
77595	  0.080	  0.185	  0.386	  0.478	 -0.154	 -9.783	 -0.003	  0.001	  0.004	 19.500	 100.030	 -0.027
77645	  0.076	  0.185	  0.391	  0.452	 -0.146	 -9.757	 -0.003	  0.002	  0.004	 19.500	 100.025	  0.402
77695	  0.078	  0.188	  0.388	  0.477	 -0.174	 -9.742	 -0.003	  0.002	  0.004	 19.500	 100.019	  0.916
77745	  0.079	  0.186	  0.391	  0.481	 -0.190	 -9.758	 -0.002	  0.003	  0.006	 19.500	 100.030	 -0.027
77795	  0.078	  0.185	  0.389	  0.468	 -0.184	 -9.789	 -0.003	  0.003	  0.006	 19.500	 100.030	 -0.027
77844	  0.080	  0.190	  0.393	  0.488	 -0.191	 -9.741	 -0.004	  0.002	  0.004	 19.500	 100.030	 -0.027
77894	  0.079	  0.188	  0.389	  0.495	 -0.150	 -9.759	 -0.003	  0.003	  0.003	 19.500	 100.030	 -0.027
77944	  0.076	  0.184	  0.386	  0.508	 -0.156	 -9.784	 -0.004	  0.002	  0.004	 19.500	 100.019	  0.916
77994	  0.078	  0.187	  0.391	  0.463	 -0.161	 -9.791	 -0.005	  0.002	  0.003	 19.500	 100.030	 -0.027
78044	  0.077	  0.187	  0.387	  0.456	 -0.171	 -9.771	 -0.003	  0.002	  0.003	 19.500	 100.019	  0.916
78094	  0.077	  0.192	  0.391	  0.458	 -0.161	 -9.800	 -0.003	  0.002	  0.005	 19.500	 100.030	 -0.027
78144	  0.077	  0.187	  0.389	  0.467	 -0.179	 -9.780	 -0.001	  0.001	  0.005	 19.500	 100.019	  0.916
78194	  0.077	  0.184	  0.388	  0.464	 -0.178	 -9.759	 -0.001	  0.002	  0.004	 19.500	 100.030	 -0.027
78244	  0.079	  0.187	  0.391	  0.489	 -0.153	 -9.727	 -0.004	  0.003	  0.003	 19.500	 100.030	 -0.027
78295	  0.078	  0.185	  0.392	  0.485	 -0.176	 -9.770	 -0.002	  0.003	  0.005	 19.500	 100.019	  0.916
78345	  0.079	  0.190	  0.389	  0.491	 -0.170	 -9.797	 -0.004	  0.003	  0.003	 19.500	 100.034	 -0.369
78395	  0.078	  0.184	  0.387	  0.482	 -0.176	 -9.725	 -0.005	  0.003	  0.004	 19.500	 100.019	  0.916
78444	  0.077	  0.187	  0.389	  0.490	 -0.156	 -9.741	 -0.004	  0.003	  0.004	 19.500	 100.030	 -0.027
78495	  0.078	  0.191	  0.393	  0.468	 -0.172	 -9.738	 -0.003	  0.001	  0.003	 19.500	 100.030	 -0.027
78545	  0.078	  0.184	  0.386	  0.481	 -0.139	 -9.785	 -0.004	  0.001	  0.004	 19.600	 100.023	  0.573
78596	  0.078	  0.184	  0.391	  0.488	 -0.175	 -9.770	 -0.002	  0.001	  0.003	 19.500	 100.041	 -0.970
78646	  0.078	  0.185	  0.392	  0.459	 -0.176	 -9.756	 -0.002	  0.003	  0.003	 19.500	 100.034	 -0.369
78695	  0.077	  0.188	  0.391	  0.449	 -0.161	 -9.806	 -0.003	  0.003	  0.004	 19.500	 100.030	 -0.027
78746	  0.078	  0.185	  0.392	  0.482	 -0.159	 -9.771	 -0.002	  0.003	  0.004	 19.500	 100.034	 -0.369
78796	  0.075	  0.186	  0.393	  0.473	 -0.167	 -9.794	 -0.005	  0.002	  0.006	 19.600	 100.023	  0.573
78846	  0.079	  0.185	  0.388	  0.477	 -0.166	 -9.756	 -0.004	  0.003	  0.004	 19.500	 100.041	 -0.970
78896	  0.079	  0.195	  0.391	  0.458	 -0.182	 -9.783	 -0.003	  0.002	  0.002	 19.500	 100.030	 -0.027
78946	  0.077	  0.185	  0.388	  0.469	 -0.151	 -9.764	 -0.003	  0.001	  0.003	 19.500	 100.045	 -1.312
78996	  0.077	  0.184	  0.389	  0.467	 -0.175	 -9.748	 -0.003	  0.002	  0.003	 19.500	 100.030	 -0.027
79046	  0.078	  0.184	  0.391	  0.467	 -0.138	 -9.747	 -0.003	  0.003	  0.003	 19.500	 100.030	 -0.027
79096	  0.077	  0.186	  0.392	  0.459	 -0.165	 -9.770	 -0.003	  0.002	  0.004	 19.500	 100.041	 -0.970
79146	  0.080	  0.184	  0.394	  0.463	 -0.188	 -9.765	 -0.003	  0.003	  0.006	 19.600	 100.030	 -0.027
79196	  0.078	  0.184	  0.386	  0.454	 -0.169	 -9.783	 -0.003	  0.003	  0.005	 19.500	 100.030	 -0.027
79246	  0.079	  0.186	  0.389	  0.482	 -0.158	 -9.785	 -0.003	  0.003	  0.005	 19.600	 100.023	  0.573
79296	  0.077	  0.188	  0.389	  0.463	 -0.184	 -9.808	 -0.004	  0.002	  0.005	 19.600	 100.034	 -0.369
79346	  0.078	  0.190	  0.393	  0.485	 -0.174	 -9.757	 -0.004	  0.003	  0.004	 19.600	 100.030	 -0.027
79396	  0.079	  0.191	  0.391	  0.482	 -0.159	 -9.781	 -0.004	  0.003	  0.003	 19.500	 100.030	 -0.027
79446	  0.078	  0.186	  0.389	  0.476	 -0.155	 -9.790	 -0.003	  0.002	  0.003	 19.500	 100.034	 -0.369
79496	  0.080	  0.186	  0.393	  0.464	 -0.147	 -9.804	 -0.003	  0.002	  0.003	 19.500	 100.030	 -0.027
79546	  0.078	  0.185	  0.391	  0.466	 -0.170	 -9.786	 -0.004	  0.002	  0.003	 19.500	 100.034	 -0.369
79596	  0.077	  0.185	  0.391	  0.470	 -0.157	 -9.753	 -0.003	  0.002	  0.005	 19.600	 100.023	  0.573
79646	  0.076	  0.190	  0.389	  0.479	 -0.164	 -9.750	 -0.004	  0.002	  0.006	 19.600	 100.034	 -0.369
79696	  0.080	  0.189	  0.392	  0.477	 -0.173	 -9.774	 -0.003	  0.002	  0.004	 19.600	 100.034	 -0.369
79746	  0.079	  0.188	  0.389	  0.499	 -0.160	 -9.788	 -0.003	  0.002	  0.004	 19.500	 100.030	 -0.027
79796	  0.079	  0.187	  0.393	  0.496	 -0.177	 -9.806	 -0.003	  0.002	  0.005	 19.600	 100.023	  0.573
79846	  0.077	  0.184	  0.391	  0.498	 -0.157	 -9.784	 -0.004	  0.001	  0.001	 19.600	 100.030	 -0.027
79896	  0.078	  0.185	  0.386	  0.458	 -0.169	 -9.740	 -0.004	  0.001	  0.004	 19.600	 100.034	 -0.369
79946	  0.077	  0.186	  0.392	  0.452	 -0.152	 -9.763	 -0.004	  0.000	  0.003	 19.600	 100.030	 -0.027
79995	  0.079	  0.191	  0.389	  0.469	 -0.151	 -9.777	 -0.003	  0.002	  0.003	 19.500	 100.030	 -0.027
80045	  0.080	  0.191	  0.391	  0.458	 -0.159	 -9.771	 -0.003	  0.002	  0.005	 19.500	 100.030	 -0.027
80095	  0.077	  0.185	  0.391	  0.466	 -0.153	 -9.783	 -0.002	  0.003	  0.004	 19.600	 100.034	 -0.369
80145	  0.079	  0.185	  0.389	  0.475	 -0.166	 -9.746	 -0.004	  0.002	  0.005	 19.600	 100.034	 -0.369
80195	  0.077	  0.188	  0.391	  0.460	 -0.191	 -9.756	 -0.003	  0.002	  0.003	 19.500	 100.030	 -0.027
80245	  0.079	  0.187	  0.391	  0.471	 -0.175	 -9.781	 -0.003	  0.003	  0.004	 19.600	 100.023	  0.573
80295	  0.075	  0.184	  0.387	  0.456	 -0.170	 -9.761	 -0.003	  0.003	  0.004	 19.500	 100.019	  0.916
80345	  0.077	  0.186	  0.389	  0.485	 -0.159	 -9.779	 -0.003	  0.001	  0.004	 19.600	 100.034	 -0.369
80395	  0.079	  0.190	  0.392	  0.467	 -0.161	 -9.794	 -0.003	  0.002	  0.005	 19.600	 100.023	  0.573
80445	  0.077	  0.185	  0.388	  0.450	 -0.164	 -9.741	 -0.003	  0.002	  0.004	 19.500	 100.008	  1.859
80495	  0.079	  0.185	  0.386	  0.500	 -0.145	 -9.739	 -0.004	  0.003	  0.004	 19.600	 100.034	 -0.369
80545	  0.080	  0.187	  0.391	  0.469	 -0.179	 -9.737	 -0.002	  0.002	  0.005	 19.600	 100.034	 -0.369
80595	  0.078	  0.186	  0.392	  0.464	 -0.146	 -9.744	 -0.002	  0.003	  0.004	 19.600	 100.012	  1.516
80645	  0.077	  0.189	  0.393	  0.484	 -0.169	 -9.800	 -0.003	  0.003	  0.005	 19.500	 100.034	 -0.369
80695	  0.081	  0.186	  0.387	  0.490	 -0.178	 -9.785	 -0.002	  0.003	  0.002	 19.600	 100.034	 -0.369
80745	  0.077	  0.188	  0.392	  0.481	 -0.173	 -9.754	 -0.003	  0.002	  0.005	 19.600	 100.019	  0.916
80795	  0.078	  0.191	  0.393	  0.472	 -0.167	 -9.759	 -0.003	  0.002	  0.004	 19.600	 100.034	 -0.369
80845	  0.079	  0.192	  0.391	  0.462	 -0.194	 -9.784	 -0.004	  0.002	  0.004	 19.600	 100.034	 -0.369
80895	  0.078	  0.187	  0.393	  0.474	 -0.162	 -9.789	 -0.004	  0.002	  0.003	 19.600	 100.023	  0.573
80945	  0.078	  0.187	  0.391	  0.476	 -0.176	 -9.781	 -0.002	  0.003	  0.003	 19.600	 100.030	 -0.027
80995	  0.080	  0.187	  0.390	  0.488	 -0.150	 -9.763	 -0.003	  0.003	  0.004	 19.600	 100.034	 -0.369
81045	  0.077	  0.190	  0.394	  0.474	 -0.157	 -9.740	 -0.003	  0.002	  0.003	 19.600	 100.023	  0.573
81095	  0.077	  0.184	  0.394	  0.481	 -0.155	 -9.776	 -0.003	  0.003	  0.004	 19.600	 100.023	  0.573
81145	  0.078	  0.185	  0.387	  0.486	 -0.180	 -9.732	 -0.005	  0.003	  0.004	 19.600	 100.034	 -0.369
81195	  0.079	  0.185	  0.389	  0.500	 -0.165	 -9.763	 -0.004	  0.003	  0.006	 19.600	 100.034	 -0.369
81245	  0.078	  0.184	  0.393	  0.456	 -0.172	 -9.787	 -0.003	  0.001	  0.002	 19.600	 100.023	  0.573
81295	  0.077	  0.187	  0.391	  0.484	 -0.161	 -9.784	 -0.003	  0.002	  0.003	 19.600	 100.034	 -0.369
81345	  0.080	  0.186	  0.393	  0.486	 -0.163	 -9.799	 -0.005	  0.002	  0.004	 19.600	 100.034	 -0.369
81395	  0.075	  0.186	  0.387	  0.466	 -0.160	 -9.789	 -0.004	  0.002	  0.003	 19.600	 100.034	 -0.369
81445	  0.080	  0.186	  0.396	  0.462	 -0.155	 -9.773	 -0.003	  0.003	  0.004	 19.600	 100.034	 -0.369
81495	  0.078	  0.186	  0.389	  0.477	 -0.178	 -9.787	 -0.002	  0.003	  0.005	 19.600	 100.023	  0.573
81545	  0.079	  0.187	  0.393	  0.466	 -0.162	 -9.796	 -0.002	  0.003	  0.004	 19.500	 100.034	 -0.369
81595	  0.080	  0.186	  0.391	  0.465	 -0.175	 -9.770	 -0.002	  0.002	  0.004	 19.600	 100.034	 -0.369
81645	  0.080	  0.184	  0.390	  0.487	 -0.153	 -9.783	 -0.003	  0.003	  0.004	 19.600	 100.034	 -0.369
81695	  0.077	  0.188	  0.391	  0.480	 -0.182	 -9.755	 -0.004	  0.002	  0.004	 19.500	 100.030	 -0.027
81745	  0.078	  0.188	  0.393	  0.493	 -0.176	 -9.719	 -0.004	  0.003	  0.004	 19.600	 100.023	  0.573
81795	  0.079	  0.184	  0.386	  0.488	 -0.164	 -9.733	 -0.005	  0.002	  0.002	 19.600	 100.023	  0.573
81845	  0.078	  0.190	  0.391	  0.466	 -0.171	 -9.768	 -0.004	  0.002	  0.003	 19.600	 100.034	 -0.369
81895	  0.077	  0.188	  0.391	  0.484	 -0.154	 -9.799	 -0.003	  0.002	  0.003	 19.600	 100.034	 -0.369
81945	  0.079	  0.192	  0.389	  0.459	 -0.149	 -9.765	 -0.003	  0.003	  0.003	 19.600	 100.023	  0.573
81995	  0.080	  0.185	  0.391	  0.474	 -0.163	 -9.800	 -0.002	  0.004	  0.005	 19.600	 100.023	  0.573
82045	  0.077	  0.188	  0.394	  0.477	 -0.181	 -9.755	 -0.003	  0.004	  0.004	 19.600	 100.034	 -0.369
82095	  0.078	  0.185	  0.393	  0.497	 -0.156	 -9.760	 -0.004	  0.003	  0.005	 19.600	 100.034	 -0.369
82145	  0.077	  0.186	  0.392	  0.488	 -0.177	 -9.764	 -0.002	  0.003	  0.003	 19.600	 100.034	 -0.369
82195	  0.078	  0.192	  0.392	  0.476	 -0.167	 -9.756	 -0.002	  0.001	  0.003	 19.600	 100.034	 -0.369
82245	  0.078	  0.191	  0.391	  0.476	 -0.181	 -9.772	 -0.003	  0.002	  0.003	 19.600	 100.034	 -0.369
82295	  0.080	  0.187	  0.392	  0.493	 -0.169	 -9.783	 -0.004	  0.003	  0.003	 19.600	 100.034	 -0.369
82345	  0.077	  0.189	  0.388	  0.467	 -0.155	 -9.783	 -0.003	  0.001	  0.004	 19.600	 100.023	  0.573
82395	  0.077	  0.188	  0.392	  0.457	 -0.172	 -9.797	 -0.004	  0.003	  0.004	 19.600	 100.034	 -0.369
82445	  0.079	  0.186	  0.389	  0.475	 -0.152	 -9.770	 -0.003	  0.003	  0.004	 19.600	 100.023	  0.573
82495	  0.078	  0.187	  0.391	  0.492	 -0.171	 -9.813	 -0.003	  0.003	  0.005	 19.600	 100.023	  0.573
82545	  0.079	  0.185	  0.392	  0.496	 -0.164	 -9.756	 -0.003	  0.002	  0.006	 19.600	 100.034	 -0.369
82595	  0.078	  0.190	  0.392	  0.479	 -0.178	 -9.749	 -0.004	  0.002	  0.004	 19.600	 100.034	 -0.369
82645	  0.077	  0.190	  0.392	  0.492	 -0.181	 -9.774	 -0.003	  0.003	  0.003	 19.600	 100.023	  0.573
82695	  0.077	  0.185	  0.387	  0.488	 -0.180	 -9.736	 -0.003	  0.002	  0.004	 19.600	 100.023	  0.573
82745	  0.080	  0.185	  0.394	  0.452	 -0.178	 -9.778	 -0.003	  0.002	  0.003	 19.600	 100.030	 -0.027
82795	  0.078	  0.185	  0.392	  0.484	 -0.169	 -9.786	 -0.003	  0.001	  0.004	 19.600	 100.023	  0.573
82845	  0.079	  0.191	  0.393	  0.469	 -0.139	 -9.764	 -0.003	  0.001	  0.004	 19.600	 100.034	 -0.369
82895	  0.077	  0.192	  0.391	  0.462	 -0.172	 -9.755	 -0.003	  0.003	  0.003	 19.600	 100.023	  0.573
82945	  0.078	  0.184	  0.387	  0.467	 -0.163	 -9.769	 -0.002	  0.003	  0.004	 19.600	 100.023	  0.573
82995	  0.076	  0.184	  0.388	  0.484	 -0.170	 -9.764	 -0.004	  0.003	  0.006	 19.600	 100.023	  0.573
83045	  0.080	  0.184	  0.392	  0.468	 -0.167	 -9.746	 -0.003	  0.004	  0.005	 19.600	 100.027	  0.230
83095	  0.079	  0.188	  0.387	  0.476	 -0.181	 -9.766	 -0.003	  0.001	  0.003	 19.600	 100.023	  0.573
83145	  0.078	  0.184	  0.388	  0.471	 -0.155	 -9.785	 -0.004	  0.002	  0.005	 19.600	 100.034	 -0.369
83195	  0.076	  0.191	  0.393	  0.456	 -0.189	 -9.807	 -0.004	  0.001	  0.002	 19.600	 100.023	  0.573
83245	  0.079	  0.191	  0.389	  0.469	 -0.171	 -9.760	 -0.005	  0.003	  0.003	 19.600	 100.034	 -0.369
83295	  0.078	  0.186	  0.389	  0.468	 -0.145	 -9.788	 -0.003	  0.003	  0.004	 19.600	 100.027	  0.230
83345	  0.079	  0.193	  0.391	  0.467	 -0.147	 -9.779	 -0.003	  0.004	  0.003	 19.600	 100.034	 -0.369
83395	  0.077	  0.185	  0.393	  0.485	 -0.146	 -9.738	 -0.003	  0.003	  0.005	 19.600	 100.023	  0.573
83445	  0.078	  0.184	  0.395	  0.467	 -0.157	 -9.806	 -0.003	  0.003	  0.005	 19.600	 100.038	 -0.712
83495	  0.077	  0.192	  0.394	  0.480	 -0.162	 -9.784	 -0.002	  0.002	  0.005	 19.600	 100.034	 -0.369
83545	  0.077	  0.189	  0.392	  0.483	 -0.159	 -9.772	 -0.003	  0.002	  0.003	 19.600	 100.023	  0.573
83595	  0.078	  0.189	  0.389	  0.452	 -0.152	 -9.779	 -0.003	  0.002	  0.003	 19.600	 100.023	  0.573
83645	  0.079	  0.188	  0.389	  0.465	 -0.178	 -9.790	 -0.003	  0.001	  0.003	 19.600	 100.038	 -0.712
83695	  0.077	  0.188	  0.393	  0.464	 -0.171	 -9.763	 -0.002	  0.002	  0.004	 19.600	 100.034	 -0.369
83745	  0.079	  0.184	  0.389	  0.464	 -0.172	 -9.813	 -0.003	  0.003	  0.003	 19.600	 100.034	 -0.369
83795	  0.076	  0.186	  0.393	  0.452	 -0.156	 -9.792	 -0.004	  0.002	  0.004	 19.600	 100.034	 -0.369
83845	  0.078	  0.184	  0.389	  0.460	 -0.151	 -9.786	 -0.003	  0.001	  0.005	 19.600	 100.034	 -0.369
83895	  0.077	  0.187	  0.389	  0.480	 -0.166	 -9.760	 -0.003	  0.003	  0.006	 19.600	 100.027	  0.230
83945	  0.079	  0.185	  0.394	  0.465	 -0.167	 -9.762	 -0.003	  0.001	  0.005	 19.600	 100.023	  0.573
83995	  0.079	  0.187	  0.389	  0.493	 -0.163	 -9.799	 -0.004	  0.003	  0.004	 19.600	 100.034	 -0.369
84045	  0.081	  0.185	  0.393	  0.461	 -0.169	 -9.763	 -0.004	  0.002	  0.004	 19.600	 100.023	  0.573
84095	  0.076	  0.185	  0.393	  0.486	 -0.171	 -9.774	 -0.004	  0.001	  0.002	 19.600	 100.023	  0.573
84146	  0.079	  0.189	  0.392	  0.469	 -0.165	 -9.774	 -0.003	  0.001	  0.004	 19.600	 100.038	 -0.712
84195	  0.078	  0.187	  0.392	  0.445	 -0.175	 -9.810	 -0.004	  0.002	  0.003	 19.600	 100.023	  0.573
84246	  0.078	  0.186	  0.386	  0.477	 -0.148	 -9.785	 -0.004	  0.003	  0.004	 19.600	 100.027	  0.230
84295	  0.076	  0.188	  0.391	  0.455	 -0.198	 -9.764	 -0.003	  0.002	  0.004	 19.600	 100.038	 -0.712
84346	  0.078	  0.186	  0.388	  0.453	 -0.138	 -9.801	 -0.004	  0.003	  0.004	 19.600	 100.023	  0.573
84396	  0.078	  0.187	  0.385	  0.477	 -0.143	 -9.770	 -0.002	  0.002	  0.003	 19.600	 100.023	  0.573
84446	  0.078	  0.184	  0.391	  0.474	 -0.185	 -9.727	 -0.003	  0.003	  0.004	 19.600	 100.034	 -0.369
84496	  0.076	  0.186	  0.392	  0.499	 -0.170	 -9.765	 -0.003	  0.003	  0.002	 19.600	 100.016	  1.173
84546	  0.080	  0.187	  0.393	  0.570	  0.242	 -9.558	 -0.002	  0.002	 -0.033	 19.600	 100.023	  0.573
84596	  0.080	  0.184	  0.391	  0.181	 -0.121	 -9.867	  0.002	 -0.001	  0.066	 19.600	 100.034	 -0.369
84646	  0.078	  0.187	  0.391	  0.570	 -0.174	 -9.831	  0.004	  0.005	 -0.057	 19.600	 100.038	 -0.712
84696	  0.081	  0.191	  0.394	  0.499	  0.030	 -9.757	  0.008	  0.002	  0.054	 19.600	 100.016	  1.173
84746	  0.078	  0.193	  0.392	  0.379	 -0.486	 -9.820	  0.006	  0.005	  0.006	 19.600	 100.034	 -0.369
84796	  0.079	  0.188	  0.389	  0.663	 -0.437	 -9.773	 -0.003	  0.006	 -0.001	 19.600	 100.023	  0.573
84846	  0.078	  0.193	  0.391	  0.419	 -0.049	 -9.768	 -0.004	  0.002	  0.004	 19.600	 100.023	  0.573
84896	  0.079	  0.187	  0.389	  0.446	 -0.420	 -9.778	 -0.010	  0.002	  0.004	 19.600	 100.023	  0.573
84946	  0.078	  0.194	  0.388	  0.611	 -0.213	 -9.756	 -0.014	  0.002	  0.002	 19.600	 100.038	 -0.712
84996	  0.080	  0.185	  0.387	  0.426	  0.065	 -9.733	 -0.008	 -0.002	 -0.027	 19.600	 100.027	  0.230
85046	  0.079	  0.185	  0.387	  0.391	 -0.154	 -9.790	 -0.007	  0.001	  0.022	 19.600	 100.027	  0.230
85096	  0.079	  0.183	  0.389	  0.507	 -0.095	 -9.810	 -0.001	  0.003	  0.010	 19.600	 100.034	 -0.369
85146	  0.077	  0.185	  0.392	  0.449	 -0.076	 -9.745	  0.005	  0.002	 -0.017	 19.600	 100.049	 -1.656
85195	  0.077	  0.191	  0.392	  0.299	 -0.147	 -9.774	  0.005	  0.005	  0.035	 19.600	 100.027	  0.230
85245	  0.079	  0.184	  0.391	  0.588	 -0.300	 -9.758	  0.002	  0.006	  0.014	 19.600	 100.027	  0.230
85295	  0.076	  0.189	  0.391	  0.581	 -0.356	 -9.790	 -0.002	  0.004	 -0.009	 19.600	 100.038	 -0.712
85345	  0.080	  0.190	  0.389	  0.346	 -0.231	 -9.836	 -0.007	  0.004	  0.011	 19.600	 100.034	 -0.369
85395	  0.080	  0.186	  0.391	  0.651	 -0.235	 -9.787	 -0.010	  0.003	  0.006	 19.600	 100.038	 -0.712
85445	  0.079	  0.186	  0.390	  0.557	 -0.218	 -9.734	 -0.010	 -0.003	 -0.010	 19.600	 100.023	  0.573
85495	  0.077	  0.185	  0.389	  0.305	 -0.028	 -9.753	 -0.009	 -0.002	 -0.010	 19.600	 100.027	  0.230
85545	  0.078	  0.189	  0.387	  0.531	 -0.105	 -9.765	 -0.003	  0.001	  0.015	 19.600	 100.038	 -0.712
85595	  0.078	  0.191	  0.391	  0.448	 -0.161	 -9.811	  0.001	  0.000	  0.004	 19.600	 100.034	 -0.369
85645	  0.080	  0.184	  0.390	  0.336	 -0.084	 -9.797	  0.003	  0.005	 -0.008	 19.600	 100.027	  0.230
85695	  0.077	  0.184	  0.388	  0.493	 -0.145	 -9.765	  0.003	  0.005	  0.032	 19.600	 100.027	  0.230
85745	  0.077	  0.185	  0.391	  0.732	 -0.287	 -9.717	 -0.002	  0.009	  0.018	 19.600	 100.027	  0.230
85795	  0.078	  0.187	  0.389	  0.494	 -0.378	 -9.673	 -0.004	  0.004	 -0.021	 19.600	 100.027	  0.230
85845	  0.078	  0.190	  0.392	  0.506	 -0.180	 -9.773	 -0.010	  0.003	  0.016	 19.600	 100.038	 -0.712
85895	  0.078	  0.185	  0.387	  0.614	 -0.210	 -9.738	 -0.010	  0.002	  0.007	 19.600	 100.038	 -0.712
85945	  0.079	  0.186	  0.389	  0.541	 -0.224	 -9.784	 -0.009	  0.000	 -0.022	 19.600	 100.038	 -0.712
85995	  0.081	  0.184	  0.392	  0.363	  0.061	 -9.734	 -0.006	  0.002	 -0.000	 19.600	 100.038	 -0.712
86045	  0.077	  0.189	  0.392	  0.498	 -0.031	 -9.771	  0.001	  0.002	  0.019	 19.600	 100.038	 -0.712
86095	  0.077	  0.188	  0.392	  0.529	 -0.304	 -9.787	  0.005	  0.001	  0.002	 19.600	 100.034	 -0.369
86145	  0.077	  0.184	  0.391	  0.325	 -0.070	 -9.784	  0.006	  0.005	 -0.003	 19.600	 100.027	  0.230
86195	  0.077	  0.186	  0.393	  0.467	 -0.200	 -9.803	  0.003	  0.004	  0.025	 19.600	 100.038	 -0.712
86245	  0.078	  0.189	  0.389	  0.516	 -0.463	 -9.824	 -0.003	  0.005	  0.019	 19.600	 100.023	  0.573
86295	  0.078	  0.185	  0.393	  0.479	 -0.204	 -9.783	 -0.008	  0.004	 -0.030	 19.600	 100.038	 -0.712
86345	  0.080	  0.192	  0.390	  0.463	 -0.148	 -9.803	 -0.012	  0.001	  0.018	 19.600	 100.023	  0.573
86395	  0.079	  0.184	  0.390	  0.503	 -0.257	 -9.753	 -0.011	  0.002	  0.008	 19.600	 100.027	  0.230
86445	  0.079	  0.191	  0.388	  0.595	 -0.165	 -9.714	 -0.007	  0.001	 -0.034	 19.600	 100.038	 -0.712
86495	  0.079	  0.188	  0.392	  0.338	  0.017	 -9.758	 -0.002	 -0.003	  0.020	 19.600	 100.038	 -0.712
86545	  0.080	  0.191	  0.390	  0.446	 -0.064	 -9.778	  0.001	  0.002	  0.048	 19.600	 100.023	  0.573
86595	  0.078	  0.185	  0.388	  0.602	 -0.268	 -9.774	  0.006	  0.003	 -0.025	 19.600	 100.034	 -0.369
86645	  0.079	  0.184	  0.392	  0.259	 -0.140	 -9.814	  0.005	  0.003	 -0.018	 19.600	 100.027	  0.230
86695	  0.078	  0.189	  0.388	  0.356	 -0.131	 -9.816	  0.001	  0.007	  0.023	 19.600	 100.038	 -0.712
86745	  0.079	  0.183	  0.387	  0.730	 -0.474	 -9.769	 -0.005	  0.004	  0.023	 19.600	 100.027	  0.230
86795	  0.079	  0.189	  0.389	  0.501	 -0.220	 -9.784	 -0.008	  0.001	 -0.023	 19.600	 100.034	 -0.369
86845	  0.078	  0.184	  0.387	  0.367	 -0.078	 -9.767	 -0.010	  0.001	  0.002	 19.600	 100.027	  0.230
86895	  0.077	  0.185	  0.385	  0.639	 -0.231	 -9.746	 -0.011	 -0.001	  0.025	 19.600	 100.027	  0.230
86945	  0.080	  0.184	  0.390	  0.504	 -0.162	 -9.761	 -0.007	 -0.001	 -0.020	 19.600	 100.027	  0.230
86995	  0.078	  0.186	  0.384	  0.425	 -0.043	 -9.771	 -0.001	  0.001	  0.002	 19.600	 100.027	  0.230
87045	  0.081	  0.185	  0.390	  0.531	 -0.111	 -9.780	  0.004	  0.003	  0.024	 19.600	 100.027	  0.230
87095	  0.079	  0.186	  0.391	  0.524	 -0.344	 -9.746	  0.005	  0.001	  0.009	 19.600	 100.012	  1.516
87145	  0.077	  0.194	  0.389	  0.338	 -0.184	 -9.795	  0.000	  0.004	  0.018	 19.600	 100.027	  0.230
87195	  0.077	  0.185	  0.391	  0.532	 -0.280	 -9.746	 -0.001	  0.006	 -0.011	 19.600	 100.027	  0.230
87245	  0.077	  0.188	  0.388	  0.584	 -0.438	 -9.773	 -0.006	  0.004	  0.012	 19.600	 100.038	 -0.712
87295	  0.078	  0.192	  0.389	  0.320	 -0.126	 -9.806	 -0.009	  0.002	 -0.009	 19.600	 100.038	 -0.712
87345	  0.078	  0.188	  0.392	  0.584	 -0.149	 -9.760	 -0.007	  0.001	 -0.026	 19.600	 100.027	  0.230
87395	  0.079	  0.192	  0.394	  0.500	 -0.163	 -9.753	 -0.010	 -0.002	  0.060	 19.600	 100.027	  0.230
87445	  0.078	  0.189	  0.392	  0.247	 -0.003	 -9.770	 -0.003	  0.000	 -0.028	 19.600	 100.027	  0.230
87495	  0.079	  0.189	  0.391	  0.576	 -0.165	 -9.741	  0.001	  0.000	 -0.015	 19.600	 100.027	  0.230
87545	  0.078	  0.188	  0.387	  0.229	  0.014	 -9.799	  0.001	  0.002	  0.044	 19.600	 100.027	  0.230
87595	  0.080	  0.188	  0.393	  0.546	 -0.293	 -9.791	  0.006	  0.007	 -0.041	 19.600	 100.027	  0.230
87645	  0.079	  0.188	  0.390	  0.653	 -0.298	 -9.766	  0.001	  0.003	 -0.020	 19.600	 100.016	  1.173
87695	  0.079	  0.188	  0.389	  0.342	 -0.160	 -9.875	 -0.009	  0.005	  0.087	 19.600	 100.027	  0.230
87745	  0.078	  0.186	  0.394	  0.558	 -0.426	 -9.792	 -0.004	  0.006	  0.007	 19.600	 100.038	 -0.712
87795	  0.078	  0.189	  0.388	  0.783	 -0.416	 -9.770	 -0.008	  0.000	 -0.048	 19.600	 100.027	  0.230
87845	  0.078	  0.184	  0.392	  0.074	  0.220	 -9.773	 -0.010	  0.001	  0.030	 19.600	 100.027	  0.230
87895	  0.080	  0.191	  0.393	  0.670	 -0.296	 -9.749	 -0.004	  0.001	 -0.004	 19.600	 100.027	  0.230
87945	  0.078	  0.186	  0.389	  0.630	 -0.289	 -9.756	 -0.006	 -0.003	  0.010	 19.600	 100.027	  0.230
87995	  0.078	  0.187	  0.388	  0.065	  0.161	 -9.784	  0.002	  0.002	 -0.032	 19.600	 100.027	  0.230
88045	  0.079	  0.184	  0.387	  0.594	 -0.214	 -9.745	  0.002	  0.004	  0.046	 19.600	 100.038	 -0.712
88095	  0.077	  0.185	  0.391	  0.545	 -0.311	 -9.794	  0.001	  0.004	  0.018	 19.600	 100.038	 -0.712
88145	  0.079	  0.186	  0.390	  0.417	 -0.164	 -9.755	  0.001	  0.003	 -0.047	 19.600	 100.027	  0.230
88195	  0.078	  0.189	  0.388	  0.452	 -0.157	 -9.748	 -0.004	  0.006	  0.060	 19.600	 100.038	 -0.712
88245	  0.079	  0.190	  0.392	  0.599	 -0.381	 -9.761	 -0.006	  0.001	  0.002	 19.600	 100.027	  0.230
88295	  0.079	  0.186	  0.390	  0.607	 -0.293	 -9.752	 -0.010	 -0.000	 -0.038	 19.600	 100.038	 -0.712
88345	  0.077	  0.186	  0.392	  0.268	  0.103	 -9.752	 -0.010	  0.000	  0.025	 19.600	 100.027	  0.230
88395	  0.077	  0.185	  0.393	  0.576	 -0.248	 -9.771	 -0.004	  0.001	  0.006	 19.600	 100.038	 -0.712
88445	  0.076	  0.188	  0.387	  0.563	 -0.222	 -9.764	 -0.003	  0.000	 -0.012	 19.600	 100.027	  0.230
88495	  0.079	  0.187	  0.393	  0.229	  0.092	 -9.787	  0.002	  0.002	 -0.005	 19.600	 100.038	 -0.712
88545	  0.078	  0.192	  0.389	  0.538	 -0.244	 -9.798	  0.002	  0.006	  0.035	 19.600	 100.038	 -0.712
88595	  0.078	  0.185	  0.394	  0.563	 -0.321	 -9.785	  0.001	  0.004	  0.003	 19.600	 100.016	  1.173
88645	  0.077	  0.192	  0.388	  0.363	 -0.111	 -9.786	 -0.001	  0.004	 -0.023	 19.600	 100.038	 -0.712
88695	  0.078	  0.185	  0.393	  0.483	 -0.237	 -9.751	 -0.005	  0.004	  0.040	 19.600	 100.016	  1.173
88744	  0.076	  0.186	  0.389	  0.646	 -0.332	 -9.775	 -0.006	  0.003	 -0.001	 19.600	 100.032	 -0.198
88794	  0.077	  0.185	  0.389	  0.502	 -0.152	 -9.781	 -0.007	 -0.001	 -0.032	 19.600	 100.043	 -1.141
88844	  0.078	  0.192	  0.391	  0.342	 -0.020	 -9.767	 -0.007	 -0.001	  0.023	 19.600	 100.027	  0.230
88894	  0.079	  0.186	  0.393	  0.573	 -0.239	 -9.755	 -0.004	  0.001	  0.010	 19.600	 100.027	  0.230
88944	  0.078	  0.185	  0.389	  0.502	 -0.150	 -9.787	 -0.003	  0.001	 -0.020	 19.600	 100.027	  0.230
88994	  0.079	  0.187	  0.392	  0.264	  0.016	 -9.759	 -0.001	  0.003	  0.012	 19.600	 100.038	 -0.712
89044	  0.080	  0.187	  0.389	  0.546	 -0.248	 -9.764	  0.001	  0.007	  0.027	 19.600	 100.027	  0.230
89094	  0.078	  0.190	  0.392	  0.565	 -0.310	 -9.788	 -0.000	  0.003	 -0.007	 19.600	 100.027	  0.230
89144	  0.078	  0.184	  0.391	  0.347	 -0.120	 -9.784	 -0.002	  0.004	 -0.003	 19.600	 100.027	  0.230
89194	  0.078	  0.188	  0.391	  0.555	 -0.235	 -9.786	 -0.004	  0.005	  0.027	 19.600	 100.027	  0.230
89244	  0.082	  0.184	  0.390	  0.631	 -0.323	 -9.745	 -0.009	  0.000	 -0.003	 19.600	 100.032	 -0.198
89294	  0.078	  0.188	  0.389	  0.386	 -0.076	 -9.771	 -0.007	 -0.001	 -0.023	 19.600	 100.043	 -1.141
89344	  0.078	  0.185	  0.391	  0.444	 -0.096	 -9.762	 -0.007	  0.000	  0.021	 19.600	 100.032	 -0.198
89394	  0.079	  0.184	  0.389	  0.537	 -0.243	 -9.778	 -0.004	  0.000	  0.008	 19.600	 100.043	 -1.141
89444	  0.078	  0.186	  0.393	  0.416	 -0.118	 -9.764	 -0.002	  0.001	 -0.020	 19.600	 100.027	  0.230
89494	  0.078	  0.187	  0.389	  0.354	 -0.033	 -9.806	 -0.001	  0.003	  0.022	 19.600	 100.038	 -0.712
89544	  0.079	  0.192	  0.394	  0.536	 -0.243	 -9.797	  0.001	  0.006	  0.021	 19.600	 100.016	  1.173
89594	  0.079	  0.192	  0.388	  0.528	 -0.284	 -9.770	 -0.001	  0.004	 -0.012	 19.600	 100.027	  0.230
89644	  0.078	  0.187	  0.387	  0.405	 -0.111	 -9.776	 -0.003	  0.003	  0.009	 19.600	 100.027	  0.230
89694	  0.076	  0.185	  0.385	  0.541	 -0.278	 -9.763	 -0.004	  0.004	  0.017	 19.600	 100.027	  0.230
89744	  0.080	  0.191	  0.393	  0.588	 -0.300	 -9.743	 -0.007	  0.000	 -0.010	 19.600	 100.032	 -0.198
89794	  0.080	  0.187	  0.391	  0.372	 -0.036	 -9.782	 -0.007	 -0.001	 -0.010	 19.600	 100.032	 -0.198
89844	  0.078	  0.192	  0.392	  0.462	 -0.155	 -9.773	 -0.005	  0.001	  0.017	 19.600	 100.038	 -0.712
89895	  0.079	  0.186	  0.390	  0.523	 -0.237	 -9.751	 -0.004	  0.002	  0.001	 19.600	 100.016	  1.173
89944	  0.076	  0.184	  0.388	  0.369	 -0.076	 -9.783	  0.000	  0.001	 -0.012	 19.600	 100.038	 -0.712
89995	  0.079	  0.184	  0.391	  0.414	 -0.120	 -9.771	  0.000	  0.006	  0.023	 19.600	 100.032	 -0.198
90044	  0.077	  0.186	  0.387	  0.537	 -0.292	 -9.778	 -0.001	  0.006	  0.013	 19.600	 100.021	  0.744
90095	  0.079	  0.186	  0.390	  0.496	 -0.206	 -9.795	  0.000	  0.004	 -0.012	 19.600	 100.032	 -0.198
90145	  0.078	  0.188	  0.388	  0.442	 -0.161	 -9.771	 -0.003	  0.003	  0.018	 19.600	 100.032	 -0.198
90195	  0.078	  0.189	  0.391	  0.555	 -0.303	 -9.792	 -0.005	  0.002	  0.010	 19.600	 100.016	  1.173
90245	  0.076	  0.184	  0.384	  0.549	 -0.246	 -9.782	 -0.007	 -0.001	 -0.013	 19.600	 100.027	  0.230
90295	  0.078	  0.185	  0.391	  0.377	 -0.083	 -9.755	 -0.005	 -0.000	  0.002	 19.600	 100.027	  0.230
90345	  0.079	  0.186	  0.389	  0.474	 -0.182	 -9.765	 -0.005	  0.002	  0.012	 19.600	 100.032	 -0.198
90395	  0.080	  0.186	  0.393	  0.491	 -0.199	 -9.749	 -0.003	  0.000	 -0.002	 19.600	 100.032	 -0.198
90445	  0.078	  0.187	  0.389	  0.383	 -0.087	 -9.767	 -0.001	  0.003	 -0.001	 19.600	 100.027	  0.230
90495	  0.079	  0.184	  0.387	  0.457	 -0.170	 -9.767	 -0.001	  0.005	  0.021	 19.600	 100.032	 -0.198
90546	  0.078	  0.191	  0.392	  0.540	 -0.280	 -9.789	 -0.002	  0.004	  0.007	 19.600	 100.021	  0.744
90596	  0.075	  0.194	  0.387	  0.457	 -0.200	 -9.807	 -0.002	  0.002	 -0.008	 19.600	 100.032	 -0.198
90646	  0.077	  0.187	  0.388	  0.472	 -0.170	 -9.751	 -0.005	  0.002	  0.016	 19.600	 100.032	 -0.198
90695	  0.079	  0.188	  0.390	  0.574	 -0.287	 -9.782	 -0.007	  0.000	  0.005	 19.600	 100.032	 -0.198
90745	  0.078	  0.184	  0.392	  0.484	 -0.191	 -9.785	 -0.008	  0.000	 -0.015	 19.600	 100.027	  0.230
90795	  0.078	  0.188	  0.388	  0.371	 -0.091	 -9.804	 -0.006	 -0.001	  0.010	 19.600	 100.043	 -1.141
90845	  0.079	  0.181	  0.391	  0.468	 -0.179	 -9.793	 -0.003	  0.000	  0.008	 19.600	 100.027	  0.230
90895	  0.077	  0.189	  0.388	  0.452	 -0.165	 -9.752	 -0.001	  0.002	 -0.013	 19.600	 100.032	 -0.198
90945	  0.081	  0.185	  0.386	  0.340	 -0.072	 -9.768	 -0.001	  0.003	  0.012	 19.600	 100.032	 -0.198
90995	  0.080	  0.188	  0.385	  0.494	 -0.183	 -9.773	 -0.001	  0.005	  0.023	 19.600	 100.032	 -0.198
91045	  0.078	  0.186	  0.387	  0.568	 -0.289	 -9.764	 -0.002	  0.005	 -0.006	 19.600	 100.032	 -0.198
91095	  0.079	  0.188	  0.386	  0.423	 -0.115	 -9.803	 -0.003	  0.002	  0.001	 19.600	 100.016	  1.173
91145	  0.077	  0.186	  0.389	  0.521	 -0.237	 -9.772	 -0.005	  0.003	  0.014	 19.600	 100.027	  0.230
91195	  0.079	  0.187	  0.392	  0.590	 -0.266	 -9.731	 -0.006	  0.000	  0.001	 19.600	 100.032	 -0.198
91245	  0.076	  0.191	  0.387	  0.381	 -0.104	 -9.781	 -0.006	 -0.001	 -0.013	 19.600	 100.021	  0.744
91295	  0.080	  0.187	  0.392	  0.432	 -0.128	 -9.778	 -0.006	  0.000	  0.013	 19.600	 100.043	 -1.141
91345	  0.078	  0.184	  0.389	  0.507	 -0.221	 -9.790	 -0.004	  0.003	  0.011	 19.600	 100.027	  0.230
91395	  0.078	  0.184	  0.391	  0.440	 -0.121	 -9.750	 -0.002	  0.002	 -0.013	 19.600	 100.016	  1.173
91445	  0.078	  0.190	  0.389	  0.443	 -0.132	 -9.771	  0.000	  0.005	  0.013	 19.600	 100.021	  0.744
91495	  0.079	  0.187	  0.391	  0.526	 -0.219	 -9.793	 -0.002	  0.005	  0.027	 19.600	 100.021	  0.744
91545	  0.077	  0.185	  0.388	  0.522	 -0.242	 -9.780	 -0.002	  0.004	 -0.015	 19.600	 100.016	  1.173
91595	  0.077	  0.186	  0.387	  0.500	 -0.148	 -9.738	 -0.004	  0.002	  0.006	 19.600	 100.032	 -0.198
91645	  0.078	  0.185	  0.391	  0.486	 -0.156	 -9.822	 -0.005	  0.001	  0.014	 19.600	 100.032	 -0.198
91695	  0.078	  0.189	  0.392	  0.591	 -0.264	 -9.747	 -0.005	  0.002	 -0.010	 19.600	 100.032	 -0.198
91745	  0.079	  0.192	  0.389	  0.384	 -0.142	 -9.777	 -0.006	 -0.000	  0.002	 19.600	 100.032	 -0.198
91795	  0.079	  0.191	  0.391	  0.400	 -0.109	 -9.774	 -0.004	  0.002	  0.005	 19.600	 100.036	 -0.542
91845	  0.077	  0.184	  0.387	  0.534	 -0.245	 -9.745	 -0.003	  0.003	  0.006	 19.600	 100.043	 -1.141
91895	  0.079	  0.189	  0.389	  0.416	 -0.114	 -9.762	 -0.002	  0.003	 -0.001	 19.600	 100.027	  0.230
91945	  0.077	  0.191	  0.391	  0.421	 -0.151	 -9.739	  0.000	  0.004	  0.009	 19.600	 100.032	 -0.198
91995	  0.078	  0.187	  0.388	  0.512	 -0.249	 -9.785	 -0.002	  0.004	  0.017	 19.600	 100.032	 -0.198
92045	  0.078	  0.187	  0.387	  0.515	 -0.214	 -9.760	 -0.002	  0.003	 -0.011	 19.600	 100.021	  0.744
92095	  0.077	  0.189	  0.387	  0.477	 -0.179	 -9.767	 -0.004	  0.002	  0.007	 19.600	 100.032	 -0.198
92145	  0.079	  0.184	  0.390	  0.513	 -0.216	 -9.792	 -0.005	  0.001	  0.013	 19.600	 100.032	 -0.198
92195	  0.079	  0.185	  0.386	  0.524	 -0.222	 -9.776	 -0.004	  0.000	 -0.012	 19.600	 100.032	 -0.198
92245	  0.079	  0.185	  0.393	  0.396	 -0.100	 -9.772	 -0.006	  0.001	  0.003	 19.600	 100.038	 -0.712
92295	  0.078	  0.185	  0.390	  0.435	 -0.142	 -9.769	 -0.003	  0.001	  0.010	 19.600	 100.032	 -0.198
92345	  0.075	  0.190	  0.387	  0.502	 -0.207	 -9.794	 -0.002	  0.004	  0.002	 19.600	 100.027	  0.230
92395	  0.078	  0.184	  0.390	  0.400	 -0.113	 -9.760	 -0.002	  0.004	  0.002	 19.600	 100.021	  0.744
92445	  0.078	  0.185	  0.391	  0.491	 -0.162	 -9.785	 -0.001	  0.005	  0.012	 19.600	 100.005	  2.117
92495	  0.079	  0.189	  0.392	  0.581	 -0.247	 -9.759	 -0.002	  0.003	  0.010	 19.600	 100.021	  0.744
92545	  0.079	  0.188	  0.390	  0.465	 -0.177	 -9.775	 -0.004	  0.002	 -0.008	 19.600	 100.032	 -0.198
92595	  0.079	  0.188	  0.393	  0.488	 -0.198	 -9.796	 -0.004	  0.002	  0.007	 19.600	 100.043	 -1.141
92645	  0.078	  0.190	  0.392	  0.519	 -0.216	 -9.788	 -0.005	  0.000	  0.010	 19.600	 100.032	 -0.198
92695	  0.077	  0.185	  0.388	  0.473	 -0.203	 -9.776	 -0.006	  0.002	 -0.013	 19.600	 100.032	 -0.198
92745	  0.078	  0.194	  0.389	  0.437	 -0.085	 -9.780	 -0.005	  0.002	  0.007	 19.600	 100.025	  0.402
92795	  0.078	  0.186	  0.389	  0.447	 -0.163	 -9.750	 -0.003	  0.004	  0.010	 19.600	 100.032	 -0.198
92845	  0.077	  0.185	  0.386	  0.482	 -0.209	 -9.746	 -0.002	  0.004	 -0.001	 19.600	 100.032	 -0.198
92895	  0.077	  0.185	  0.388	  0.419	 -0.129	 -9.797	 -0.001	  0.003	  0.006	 19.600	 100.032	 -0.198
92945	  0.076	  0.195	  0.391	  0.504	 -0.187	 -9.780	 -0.000	  0.004	  0.014	 19.600	 100.021	  0.744
92995	  0.079	  0.187	  0.391	  0.533	 -0.267	 -9.749	 -0.002	  0.003	  0.003	 19.600	 100.032	 -0.198
93045	  0.079	  0.185	  0.393	  0.464	 -0.150	 -9.774	 -0.004	  0.001	 -0.005	 19.600	 100.032	 -0.198
93095	  0.079	  0.187	  0.390	  0.469	 -0.209	 -9.798	 -0.005	  0.001	  0.007	 19.600	 100.032	 -0.198
93145	  0.079	  0.189	  0.392	  0.517	 -0.193	 -9.786	 -0.006	  0.001	  0.007	 19.600	 100.043	 -1.141
93195	  0.078	  0.191	  0.391	  0.459	 -0.171	 -9.806	 -0.005	  0.001	 -0.015	 19.600	 100.021	  0.744
93245	  0.078	  0.186	  0.390	  0.405	 -0.143	 -9.771	 -0.005	  0.002	  0.016	 19.600	 100.032	 -0.198
93295	  0.078	  0.191	  0.389	  0.443	 -0.161	 -9.819	 -0.003	  0.003	  0.003	 19.600	 100.032	 -0.198
93345	  0.077	  0.188	  0.392	  0.502	 -0.176	 -9.748	 -0.002	  0.003	 -0.000	 19.600	 100.021	  0.744
93395	  0.077	  0.184	  0.391	  0.414	 -0.110	 -9.746	 -0.001	  0.004	  0.013	 19.600	 100.032	 -0.198
93445	  0.079	  0.185	  0.390	  0.522	 -0.226	 -9.777	 -0.001	  0.003	  0.005	 19.600	 100.032	 -0.198
93495	  0.077	  0.188	  0.387	  0.534	 -0.263	 -9.762	 -0.003	  0.002	  0.004	 19.600	 100.032	 -0.198
93545	  0.078	  0.186	  0.391	  0.419	 -0.159	 -9.779	 -0.004	 -0.000	 -0.000	 19.600	 100.032	 -0.198
93595	  0.077	  0.186	  0.391	  0.493	 -0.228	 -9.782	 -0.004	  0.001	  0.006	 19.600	 100.032	 -0.198
93645	  0.078	  0.189	  0.389	  0.482	 -0.209	 -9.766	 -0.007	  0.000	 -0.000	 19.600	 100.032	 -0.198
93695	  0.078	  0.188	  0.392	  0.424	 -0.122	 -9.790	 -0.005	  0.003	 -0.005	 19.600	 100.032	 -0.198
93745	  0.079	  0.185	  0.386	  0.451	 -0.116	 -9.761	 -0.005	  0.005	  0.012	 19.600	 100.021	  0.744
93795	  0.079	  0.186	  0.389	  0.482	 -0.170	 -9.743	 -0.002	  0.003	  0.006	 19.600	 100.021	  0.744
93845	  0.076	  0.188	  0.389	  0.483	 -0.170	 -9.770	 -0.002	  0.005	 -0.002	 19.600	 100.025	  0.402
93895	  0.079	  0.185	  0.389	  0.470	 -0.125	 -9.785	 -0.000	  0.002	  0.017	 19.600	 100.032	 -0.198
93945	  0.078	  0.185	  0.386	  0.518	 -0.226	 -9.759	 -0.002	  0.003	  0.000	 19.600	 100.032	 -0.198
93995	  0.079	  0.192	  0.389	  0.520	 -0.225	 -9.781	 -0.004	  0.002	 -0.002	 19.600	 100.021	  0.744
94045	  0.078	  0.190	  0.384	  0.461	 -0.176	 -9.764	 -0.004	  0.001	  0.007	 19.600	 100.032	 -0.198
94095	  0.078	  0.185	  0.392	  0.512	 -0.235	 -9.745	 -0.006	  0.001	  0.002	 19.600	 100.032	 -0.198
94145	  0.079	  0.189	  0.389	  0.484	 -0.182	 -9.795	 -0.006	  0.001	  0.001	 19.600	 100.021	  0.744
94195	  0.076	  0.191	  0.392	  0.401	 -0.097	 -9.767	 -0.003	  0.003	 -0.003	 19.600	 100.021	  0.744
94245	  0.079	  0.187	  0.390	  0.468	 -0.191	 -9.733	 -0.004	  0.005	  0.013	 19.600	 100.036	 -0.542
94295	  0.080	  0.187	  0.389	  0.454	 -0.155	 -9.792	 -0.003	  0.003	  0.006	 19.600	 100.021	  0.744
94345	  0.079	  0.187	  0.392	  0.454	 -0.169	 -9.741	 -0.001	  0.003	  0.000	 19.600	 100.021	  0.744
94395	  0.081	  0.188	  0.389	  0.476	 -0.226	 -9.783	 -0.002	  0.003	  0.015	 19.600	 100.036	 -0.542
94445	  0.080	  0.184	  0.386	  0.527	 -0.243	 -9.767	 -0.003	  0.002	  0.003	 19.600	 100.032	 -0.198
94495	  0.078	  0.189	  0.387	  0.507	 -0.212	 -9.774	 -0.004	  0.002	 -0.002	 19.600	 100.036	 -0.542
94545	  0.079	  0.187	  0.390	  0.435	 -0.162	 -9.753	 -0.005	  0.001	  0.008	 19.600	 100.021	  0.744
94595	  0.079	  0.185	  0.387	  0.513	 -0.194	 -9.772	 -0.005	  0.001	  0.001	 19.600	 100.036	 -0.542
94645	  0.079	  0.188	  0.391	  0.456	 -0.180	 -9.761	 -0.006	  0.001	 -0.001	 19.600	 100.032	 -0.198
94695	  0.078	  0.188	  0.389	  0.422	 -0.114	 -9.782	 -0.004	  0.003	  0.004	 19.600	 100.032	 -0.198
94745	  0.078	  0.185	  0.393	  0.523	 -0.171	 -9.739	 -0.002	  0.004	  0.008	 19.600	 100.025	  0.402
94795	  0.077	  0.187	  0.382	  0.472	 -0.207	 -9.813	 -0.001	  0.003	  0.004	 19.600	 100.032	 -0.198
94845	  0.079	  0.187	  0.389	  0.439	 -0.145	 -9.768	 -0.002	  0.003	  0.003	 19.600	 100.021	  0.744
94895	  0.078	  0.188	  0.387	  0.555	 -0.230	 -9.739	 -0.002	  0.004	  0.013	 19.600	 100.036	 -0.542
94945	  0.079	  0.187	  0.390	  0.484	 -0.237	 -9.765	 -0.003	  0.001	  0.003	 19.600	 100.032	 -0.198
94995	  0.081	  0.187	  0.391	  0.472	 -0.168	 -9.803	 -0.004	  0.000	 -0.004	 19.600	 100.032	 -0.198
95045	  0.077	  0.190	  0.391	  0.460	 -0.205	 -9.765	 -0.005	  0.001	  0.009	 19.600	 100.032	 -0.198
95095	  0.078	  0.186	  0.392	  0.478	 -0.208	 -9.773	 -0.006	  0.001	  0.001	 19.600	 100.032	 -0.198
95145	  0.077	  0.186	  0.391	  0.430	 -0.153	 -9.791	 -0.004	  0.003	 -0.001	 19.600	 100.032	 -0.198
95195	  0.079	  0.184	  0.390	  0.424	 -0.111	 -9.770	 -0.002	  0.003	  0.008	 19.600	 100.021	  0.744
95245	  0.078	  0.186	  0.391	  0.493	 -0.196	 -9.785	 -0.002	  0.004	  0.006	 19.600	 100.032	 -0.198
95295	  0.078	  0.186	  0.390	  0.489	 -0.189	 -9.774	 -0.001	  0.003	  0.002	 19.600	 100.032	 -0.198
95345	  0.078	  0.186	  0.387	  0.428	 -0.160	 -9.780	 -0.001	  0.003	  0.007	 19.600	 100.036	 -0.542
95395	  0.081	  0.188	  0.392	  0.495	 -0.270	 -9.775	 -0.001	  0.003	  0.011	 19.600	 100.036	 -0.542
95445	  0.079	  0.187	  0.386	  0.460	 -0.266	 -9.718	 -0.003	  0.001	 -0.000	 19.600	 100.032	 -0.198
95495	  0.079	  0.188	  0.391	  0.487	 -0.200	 -9.771	 -0.005	  0.002	  0.000	 19.600	 100.021	  0.744
95545	  0.078	  0.186	  0.390	  0.551	 -0.184	 -9.787	 -0.005	  0.003	  0.004	 19.600	 100.036	 -0.542
95595	  0.078	  0.187	  0.386	  0.471	 -0.144	 -9.780	 -0.005	  0.002	 -0.005	 19.600	 100.036	 -0.542
95645	  0.079	  0.186	  0.386	  0.427	 -0.139	 -9.757	 -0.004	  0.002	  0.004	 19.600	 100.032	 -0.198
95695	  0.076	  0.193	  0.392	  0.458	 -0.189	 -9.763	 -0.002	  0.005	  0.010	 19.600	 100.025	  0.402
95745	  0.076	  0.190	  0.392	  0.492	 -0.160	 -9.764	 -0.002	  0.003	 -0.002	 19.600	 100.032	 -0.198
95795	  0.077	  0.187	  0.387	  0.420	 -0.129	 -9.807	 -0.001	  0.003	  0.009	 19.600	 100.036	 -0.542
95845	  0.078	  0.190	  0.392	  0.492	 -0.194	 -9.782	 -0.002	  0.003	  0.010	 19.600	 100.032	 -0.198
95895	  0.078	  0.185	  0.386	  0.531	 -0.216	 -9.752	 -0.002	  0.001	 -0.004	 19.600	 100.025	  0.402
95945	  0.078	  0.186	  0.387	  0.458	 -0.182	 -9.803	 -0.004	  0.002	  0.002	 19.600	 100.032	 -0.198
95995	  0.077	  0.188	  0.387	  0.457	 -0.183	 -9.775	 -0.006	  0.002	  0.010	 19.600	 100.025	  0.402
96045	  0.077	  0.192	  0.391	  0.482	 -0.157	 -9.760	 -0.005	  0.002	 -0.004	 19.600	 100.021	  0.744
96095	  0.077	  0.187	  0.389	  0.456	 -0.163	 -9.775	 -0.004	  0.002	 -0.001	 19.600	 100.025	  0.402
96145	  0.079	  0.184	  0.390	  0.437	 -0.147	 -9.768	 -0.004	  0.003	  0.015	 19.600	 100.025	  0.402
96195	  0.078	  0.188	  0.392	  0.483	 -0.201	 -9.799	 -0.001	  0.005	 -0.004	 19.600	 100.025	  0.402
96245	  0.078	  0.190	  0.391	  0.466	 -0.173	 -9.769	 -0.002	  0.004	  0.007	 19.600	 100.025	  0.402
96295	  0.078	  0.189	  0.388	  0.429	 -0.175	 -9.766	 -0.001	  0.003	  0.011	 19.600	 100.025	  0.402
96345	  0.077	  0.186	  0.391	  0.535	 -0.243	 -9.752	 -0.003	  0.002	  0.001	 19.600	 100.047	 -1.484
96395	  0.078	  0.185	  0.392	  0.463	 -0.205	 -9.781	 -0.005	  0.002	  0.004	 19.600	 100.036	 -0.542
96445	  0.079	  0.189	  0.391	  0.465	 -0.173	 -9.736	 -0.005	  0.003	  0.003	 19.600	 100.047	 -1.484
96495	  0.077	  0.187	  0.389	  0.527	 -0.241	 -9.755	 -0.005	  0.001	  0.006	 19.600	 100.032	 -0.198
96545	  0.078	  0.186	  0.390	  0.432	 -0.155	 -9.782	 -0.005	  0.002	 -0.000	 19.600	 100.032	 -0.198
96595	  0.078	  0.187	  0.389	  0.484	 -0.148	 -9.792	 -0.004	  0.002	  0.003	 19.600	 100.032	 -0.198
96645	  0.078	  0.187	  0.391	  0.492	 -0.164	 -9.775	 -0.003	  0.003	  0.012	 19.600	 100.036	 -0.542
96695	  0.078	  0.185	  0.386	  0.477	 -0.161	 -9.775	 -0.003	  0.002	 -0.001	 19.600	 100.036	 -0.542
96745	  0.078	  0.187	  0.389	  0.494	 -0.173	 -9.775	 -0.001	  0.003	  0.006	 19.600	 100.036	 -0.542
96795	  0.077	  0.191	  0.391	  0.491	 -0.210	 -9.797	 -0.002	  0.002	  0.013	 19.600	 100.032	 -0.198
96845	  0.077	  0.188	  0.392	  0.532	 -0.243	 -9.768	 -0.003	  0.002	 -0.003	 19.600	 100.036	 -0.542
96895	  0.077	  0.185	  0.388	  0.461	 -0.176	 -9.765	 -0.004	  0.001	  0.002	 19.600	 100.025	  0.402
96945	  0.076	  0.189	  0.392	  0.459	 -0.196	 -9.794	 -0.005	  0.003	  0.008	 19.600	 100.025	  0.402
96995	  0.079	  0.188	  0.390	  0.517	 -0.231	 -9.779	 -0.005	  0.003	 -0.001	 19.600	 100.025	  0.402
97045	  0.077	  0.188	  0.392	  0.443	 -0.113	 -9.787	 -0.004	  0.003	  0.002	 19.600	 100.025	  0.402
97095	  0.077	  0.186	  0.388	  0.448	 -0.174	 -9.789	 -0.003	  0.003	  0.006	 19.600	 100.036	 -0.542
97145	  0.077	  0.193	  0.391	  0.522	 -0.198	 -9.770	 -0.002	  0.004	  0.007	 19.600	 100.032	 -0.198
97195	  0.076	  0.189	  0.389	  0.459	 -0.151	 -9.799	 -0.001	  0.002	  0.001	 19.600	 100.036	 -0.542
97245	  0.079	  0.188	  0.385	  0.449	 -0.197	 -9.768	 -0.001	  0.004	  0.007	 19.600	 100.025	  0.402
97295	  0.078	  0.189	  0.386	  0.532	 -0.240	 -9.766	 -0.003	  0.002	  0.007	 19.600	 100.010	  1.687
97345	  0.079	  0.186	  0.392	  0.483	 -0.201	 -9.807	 -0.001	  0.002	 -0.002	 19.600	 100.029	  0.059
97395	  0.075	  0.186	  0.383	  0.485	 -0.207	 -9.767	 -0.004	  0.003	  0.004	 19.600	 100.025	  0.402
97445	  0.080	  0.187	  0.390	  0.484	 -0.194	 -9.792	 -0.004	  0.003	  0.007	 19.600	 100.025	  0.402
97495	  0.078	  0.191	  0.391	  0.472	 -0.199	 -9.794	 -0.005	  0.001	 -0.002	 19.600	 100.025	  0.402
97545	  0.078	  0.187	  0.390	  0.437	 -0.159	 -9.777	 -0.005	  0.003	  0.004	 19.600	 100.036	 -0.542
97595	  0.078	  0.192	  0.388	  0.477	 -0.158	 -9.757	 -0.004	  0.001	  0.005	 19.600	 100.025	  0.402
97645	  0.078	  0.190	  0.389	  0.484	 -0.180	 -9.753	 -0.003	  0.003	  0.001	 19.600	 100.036	 -0.542
97695	  0.079	  0.186	  0.390	  0.460	 -0.133	 -9.790	 -0.003	  0.003	  0.005	 19.600	 100.036	 -0.542
97745	  0.077	  0.189	  0.392	  0.492	 -0.161	 -9.774	  0.000	  0.002	  0.006	 19.600	 100.036	 -0.542
97795	  0.079	  0.188	  0.390	  0.508	 -0.226	 -9.795	 -0.002	  0.002	  0.007	 19.600	 100.029	  0.059
97845	  0.079	  0.188	  0.384	  0.476	 -0.169	 -9.789	 -0.003	  0.002	  0.001	 19.600	 100.025	  0.402
97895	  0.080	  0.188	  0.392	  0.469	 -0.225	 -9.763	 -0.003	  0.002	  0.003	 19.600	 100.025	  0.402
97945	  0.078	  0.186	  0.384	  0.468	 -0.219	 -9.793	 -0.005	  0.002	  0.006	 19.600	 100.036	 -0.542
97995	  0.083	  0.190	  0.393	  0.479	 -0.191	 -9.799	 -0.005	  0.002	 -0.003	 19.600	 100.036	 -0.542
98045	  0.076	  0.185	  0.389	  0.460	 -0.152	 -9.793	 -0.004	  0.002	  0.003	 19.600	 100.014	  1.345
98095	  0.077	  0.185	  0.392	  0.452	 -0.184	 -9.766	 -0.004	  0.002	  0.007	 19.600	 100.036	 -0.542
98145	  0.079	  0.186	  0.392	  0.491	 -0.177	 -9.736	 -0.003	  0.003	  0.000	 19.600	 100.036	 -0.542
98195	  0.077	  0.190	  0.389	  0.446	 -0.140	 -9.773	 -0.002	  0.001	  0.004	 19.600	 100.025	  0.402
98245	  0.080	  0.188	  0.391	  0.457	 -0.196	 -9.773	 -0.000	  0.002	  0.008	 19.600	 100.036	 -0.542
98295	  0.079	  0.191	  0.392	  0.534	 -0.220	 -9.718	 -0.002	  0.002	  0.003	 19.600	 100.036	 -0.542
98345	  0.079	  0.184	  0.387	  0.461	 -0.190	 -9.826	 -0.003	  0.002	  0.003	 19.600	 100.025	  0.402
98395	  0.080	  0.187	  0.390	  0.462	 -0.191	 -9.797	 -0.004	  0.001	  0.005	 19.600	 100.025	  0.402
98445	  0.078	  0.185	  0.389	  0.479	 -0.204	 -9.839	 -0.005	  0.002	  0.004	 19.600	 100.032	 -0.198
98495	  0.079	  0.183	  0.389	  0.460	 -0.158	 -9.779	 -0.006	  0.001	  0.000	 19.600	 100.036	 -0.542
98545	  0.078	  0.189	  0.389	  0.454	 -0.163	 -9.787	 -0.005	  0.003	  0.005	 19.600	 100.025	  0.402
98595	  0.078	  0.189	  0.386	  0.499	 -0.196	 -9.795	 -0.004	  0.003	  0.006	 19.600	 100.029	  0.059
98645	  0.079	  0.187	  0.390	  0.469	 -0.183	 -9.740	 -0.001	  0.002	 -0.000	 19.600	 100.025	  0.402
98695	  0.076	  0.188	  0.388	  0.459	 -0.163	 -9.743	 -0.001	  0.002	  0.007	 19.600	 100.025	  0.402
98745	  0.079	  0.187	  0.390	  0.494	 -0.217	 -9.792	 -0.000	  0.003	  0.009	 19.600	 100.025	  0.402
98795	  0.078	  0.186	  0.392	  0.474	 -0.216	 -9.750	 -0.003	  0.002	 -0.000	 19.600	 100.036	 -0.542
98845	  0.078	  0.193	  0.391	  0.457	 -0.156	 -9.802	 -0.003	  0.002	  0.004	 19.600	 100.036	 -0.542
98895	  0.077	  0.188	  0.391	  0.501	 -0.218	 -9.781	 -0.004	  0.002	  0.009	 19.600	 100.025	  0.402
98945	  0.078	  0.188	  0.389	  0.492	 -0.213	 -9.787	 -0.005	  0.004	 -0.001	 19.600	 100.025	  0.402
98995	  0.077	  0.185	  0.387	  0.477	 -0.127	 -9.754	 -0.004	  0.001	  0.003	 19.600	 100.036	 -0.542
99045	  0.078	  0.187	  0.385	  0.483	 -0.184	 -9.788	 -0.004	  0.003	  0.007	 19.600	 100.025	  0.402
99095	  0.077	  0.194	  0.392	  0.480	 -0.184	 -9.738	 -0.003	  0.001	  0.001	 19.600	 100.036	 -0.542
99144	  0.078	  0.191	  0.392	  0.453	 -0.144	 -9.771	 -0.002	  0.003	  0.003	 19.600	 100.036	 -0.542
99194	  0.077	  0.191	  0.391	  0.477	 -0.185	 -9.820	 -0.002	  0.003	  0.009	 19.600	 100.025	  0.402
99244	  0.077	  0.194	  0.388	  0.489	 -0.218	 -9.778	 -0.003	  0.003	  0.004	 19.600	 100.025	  0.402
99294	  0.080	  0.191	  0.393	  0.476	 -0.189	 -9.769	 -0.002	  0.003	  0.002	 19.600	 100.036	 -0.542
99344	  0.079	  0.186	  0.386	  0.482	 -0.185	 -9.793	 -0.004	  0.002	  0.009	 19.600	 100.036	 -0.542
99394	  0.077	  0.193	  0.391	  0.506	 -0.214	 -9.787	 -0.005	  0.003	  0.003	 19.600	 100.025	  0.402
99444	  0.078	  0.187	  0.391	  0.496	 -0.198	 -9.782	 -0.004	  0.001	 -0.002	 19.600	 100.036	 -0.542
99495	  0.078	  0.191	  0.389	  0.464	 -0.141	 -9.793	 -0.006	  0.002	  0.007	 19.600	 100.025	  0.402
99544	  0.079	  0.191	  0.392	  0.473	 -0.176	 -9.770	 -0.003	  0.001	  0.004	 19.600	 100.036	 -0.542
99594	  0.079	  0.187	  0.391	  0.468	 -0.175	 -9.774	 -0.003	  0.002	  0.001	 19.600	 100.040	 -0.884
99644	  0.077	  0.188	  0.393	  0.437	 -0.152	 -9.753	 -0.002	  0.003	  0.008	 19.600	 100.025	  0.402
99694	  0.077	  0.186	  0.388	  0.482	 -0.198	 -9.776	 -0.001	  0.004	  0.006	 19.600	 100.025	  0.402
99744	  0.078	  0.191	  0.389	  0.464	 -0.236	 -9.739	 -0.001	  0.003	  0.003	 19.600	 100.025	  0.402
99794	  0.080	  0.184	  0.390	  0.462	 -0.164	 -9.756	 -0.002	  0.002	  0.002	 19.600	 100.029	  0.059
99844	  0.078	  0.186	  0.390	  0.489	 -0.229	 -9.786	 -0.003	  0.003	  0.008	 19.600	 100.025	  0.402
99894	  0.081	  0.190	  0.389	  0.524	 -0.248	 -9.776	 -0.004	  0.002	  0.001	 19.600	 100.025	  0.402
99944	  0.079	  0.187	  0.391	  0.464	 -0.164	 -9.839	 -0.005	  0.001	 -0.001	 19.600	 100.029	  0.059
99994	  0.078	  0.185	  0.387	  0.475	 -0.162	 -9.780	 -0.006	  0.003	  0.008	 19.600	 100.029	  0.059
100044	  0.078	  0.185	  0.390	  0.493	 -0.195	 -9.795	 -0.003	  0.002	  0.002	 19.600	 100.040	 -0.884
100094	  0.077	  0.192	  0.392	  0.458	 -0.168	 -9.770	 -0.003	  0.003	 -0.000	 19.600	 100.040	 -0.884
100144	  0.076	  0.189	  0.391	  0.454	 -0.165	 -9.801	 -0.003	  0.004	  0.009	 19.600	 100.025	  0.402
100194	  0.077	  0.188	  0.392	  0.477	 -0.216	 -9.744	 -0.001	  0.003	  0.007	 19.600	 100.036	 -0.542
