Time	 MagX	 MagY	 MagZ	 AccelX	 AccelY	 AccelZ	 Yaw	 Pitch	 Roll	 Temperature	 Pressure	 Altitude
5264	  0.700	  0.398	  0.678	  0.088	 -0.034	 -9.749	 -0.003	  0.001	 -0.000	 32.700	 99.104	 -99999.000
5310	  0.700	  0.398	  0.679	  0.092	 -0.031	 -9.767	 -0.005	  0.004	 -0.000	 32.700	 99.104	 -99999.000
5360	  0.699	  0.399	  0.677	  0.073	 -0.027	 -9.780	 -0.004	  0.003	  0.001	 32.700	 99.104	 -99999.000
5410	  0.700	  0.397	  0.682	  0.086	 -0.014	 -9.767	 -0.004	  0.001	 -0.000	 32.700	 99.115	 -99999.000
5460	  0.700	  0.400	  0.684	  0.075	 -0.013	 -9.811	 -0.003	  0.002	  0.002	 32.700	 99.104	 -99999.000
5510	  0.698	  0.397	  0.678	  0.065	  0.001	 -9.786	 -0.003	  0.002	 -0.000	 32.700	 99.088	 -99999.000
5560	  0.703	  0.402	  0.683	  0.089	 -0.020	 -9.786	 -0.004	  0.002	 -0.001	 32.700	 99.104	 -99999.000
5610	  0.701	  0.396	  0.675	  0.094	  0.008	 -9.755	 -0.003	  0.002	  0.001	 32.700	 99.093	 -99999.000
5660	  0.700	  0.397	  0.677	  0.103	 -0.036	 -9.745	 -0.003	  0.002	 -0.001	 32.700	 99.104	 -99999.000
5710	  0.700	  0.397	  0.683	  0.068	 -0.028	 -9.775	 -0.002	  0.003	  0.001	 32.700	 99.093	 -99999.000
5760	  0.700	  0.401	  0.681	  0.101	 -0.016	 -9.768	 -0.004	  0.002	  0.000	 32.700	 99.104	 -99999.000
5810	  0.701	  0.403	  0.682	  0.075	 -0.014	 -9.772	 -0.004	  0.002	 -0.001	 32.700	 99.104	 -99999.000
5860	  0.701	  0.399	  0.681	  0.073	 -0.020	 -9.781	 -0.004	  0.002	  0.000	 32.700	 99.104	 -99999.000
5910	  0.701	  0.398	  0.682	  0.074	 -0.003	 -9.778	 -0.004	  0.002	 -0.000	 32.700	 99.104	 -99999.000
5960	  0.701	  0.402	  0.681	  0.090	 -0.012	 -9.767	 -0.004	  0.002	  0.001	 32.700	 99.104	 -99999.000
6010	  0.702	  0.401	  0.682	  0.061	 -0.001	 -9.747	 -0.004	  0.003	  0.001	 32.700	 99.104	 -99999.000
6060	  0.701	  0.398	  0.678	  0.087	 -0.006	 -9.758	 -0.003	  0.003	  0.001	 32.700	 99.093	 -99999.000
6110	  0.702	  0.397	  0.682	  0.095	 -0.025	 -9.771	 -0.003	  0.003	  0.001	 32.700	 99.104	 -99999.000
6160	  0.699	  0.404	  0.679	  0.087	 -0.026	 -9.738	 -0.004	  0.002	 -0.000	 32.700	 99.093	 -99999.000
6210	  0.699	  0.399	  0.681	  0.081	 -0.005	 -9.758	 -0.003	  0.003	 -0.001	 32.700	 99.108	 -99999.000
6260	  0.700	  0.396	  0.682	  0.085	 -0.014	 -9.739	 -0.004	  0.002	 -0.000	 32.700	 99.108	 -99999.000
6310	  0.699	  0.398	  0.677	  0.083	 -0.012	 -9.757	 -0.004	  0.003	  0.000	 32.700	 99.104	 -99999.000
6360	  0.699	  0.397	  0.681	  0.100	 -0.006	 -9.775	 -0.003	  0.003	  0.000	 32.700	 99.104	 -99999.000
6410	  0.697	  0.405	  0.679	  0.067	  0.005	 -9.771	 -0.004	  0.002	  0.001	 32.700	 99.104	 -99999.000
6460	  0.701	  0.399	  0.681	  0.083	 -0.003	 -9.762	 -0.003	  0.004	  0.001	 32.700	 99.104	 -99999.000
6510	  0.700	  0.400	  0.681	  0.087	 -0.002	 -9.718	 -0.004	  0.002	  0.001	 32.700	 99.104	 -99999.000
6560	  0.700	  0.399	  0.678	  0.079	 -0.029	 -9.747	 -0.003	  0.002	 -0.000	 32.700	 99.115	 -99999.000
6610	  0.700	  0.397	  0.678	  0.085	 -0.017	 -9.754	 -0.004	  0.004	  0.000	 32.700	 99.093	 -99999.000
6660	  0.700	  0.400	  0.683	  0.097	  0.000	 -9.754	 -0.003	  0.002	  0.000	 32.700	 99.104	 -99999.000
6710	  0.701	  0.396	  0.682	  0.102	 -0.020	 -9.766	 -0.003	  0.001	 -0.000	 32.700	 99.104	 -99999.000
6760	  0.700	  0.395	  0.680	  0.090	  0.000	 -9.740	 -0.002	  0.002	  0.000	 32.700	 99.093	 -99999.000
6810	  0.700	  0.402	  0.679	  0.092	  0.001	 -9.777	 -0.002	  0.002	  0.000	 32.700	 99.104	 -99999.000
6860	  0.701	  0.406	  0.681	  0.076	 -0.016	 -9.756	 -0.004	  0.002	 -0.000	 32.700	 99.093	 -99999.000
6910	  0.701	  0.397	  0.682	  0.085	 -0.024	 -9.752	 -0.003	  0.003	  0.000	 32.700	 99.104	 -99999.000
6960	  0.699	  0.399	  0.679	  0.078	 -0.015	 -9.736	 -0.003	  0.002	 -0.000	 32.700	 99.093	 -99999.000
7010	  0.703	  0.398	  0.682	  0.072	 -0.017	 -9.772	 -0.002	  0.001	  0.001	 32.700	 99.104	 -99999.000
7060	  0.700	  0.397	  0.678	  0.096	 -0.008	 -9.765	 -0.004	  0.002	 -0.000	 32.700	 99.108	 -99999.000
7110	  0.702	  0.402	  0.683	  0.082	 -0.027	 -9.757	 -0.004	  0.002	 -0.001	 32.700	 99.115	 -99999.000
7160	  0.702	  0.397	  0.681	  0.068	 -0.021	 -9.752	 -0.003	  0.003	  0.000	 32.700	 99.104	 -99999.000
7210	  0.700	  0.396	  0.684	  0.066	 -0.005	 -9.780	 -0.003	  0.002	  0.001	 32.700	 99.104	 -99999.000
7260	  0.701	  0.396	  0.677	  0.094	  0.001	 -9.746	 -0.003	  0.003	 -0.001	 32.700	 99.104	 -99999.000
7310	  0.699	  0.400	  0.679	  0.090	 -0.017	 -9.770	 -0.003	  0.001	  0.001	 32.700	 99.104	 -99999.000
7360	  0.700	  0.399	  0.680	  0.088	 -0.010	 -9.757	 -0.003	  0.004	  0.001	 32.700	 99.104	 -99999.000
7410	  0.701	  0.400	  0.682	  0.053	 -0.002	 -9.790	 -0.003	  0.003	  0.000	 32.700	 99.104	 -99999.000
7460	  0.700	  0.397	  0.682	  0.086	  0.001	 -9.739	 -0.003	  0.002	  0.001	 32.700	 99.115	 -99999.000
7510	  0.701	  0.397	  0.682	  0.083	 -0.019	 -9.778	 -0.003	  0.003	 -0.001	 32.700	 99.104	 -99999.000
7560	  0.701	  0.404	  0.685	  0.094	 -0.001	 -9.767	 -0.005	  0.003	  0.001	 32.700	 99.104	 -99999.000
7610	  0.700	  0.397	  0.678	  0.080	  0.009	 -9.777	 -0.003	  0.001	  0.001	 32.700	 99.108	 -99999.000
7660	  0.700	  0.399	  0.680	  0.085	  0.004	 -9.734	 -0.004	  0.002	  0.000	 32.700	 99.104	 -99999.000
7710	  0.699	  0.398	  0.684	  0.077	  0.018	 -9.739	 -0.004	  0.002	  0.002	 32.700	 99.115	 -99999.000
7760	  0.700	  0.396	  0.680	  0.084	 -0.019	 -9.791	 -0.005	  0.002	  0.000	 32.700	 99.104	 -99999.000
7810	  0.702	  0.396	  0.683	  0.060	 -0.007	 -9.762	 -0.003	  0.002	 -0.000	 32.700	 99.104	 -99999.000
7860	  0.701	  0.399	  0.682	  0.092	  0.010	 -9.760	 -0.004	  0.002	  0.001	 32.700	 99.108	 -99999.000
7910	  0.699	  0.402	  0.683	  0.060	 -0.005	 -9.779	 -0.003	  0.003	  0.001	 32.700	 99.104	 -99999.000
7961	  0.700	  0.398	  0.674	  0.062	 -0.000	 -9.751	 -0.003	  0.002	  0.001	 32.700	 99.115	 -99999.000
8010	  0.699	  0.403	  0.682	  0.075	 -0.003	 -9.741	 -0.003	  0.002	 -0.001	 32.700	 99.108	 -99999.000
8060	  0.700	  0.396	  0.676	  0.094	 -0.005	 -9.747	 -0.003	  0.002	 -0.000	 32.700	 99.104	 -99999.000
8110	  0.700	  0.397	  0.681	  0.059	 -0.006	 -9.764	 -0.004	  0.002	 -0.000	 32.700	 99.108	 -99999.000
8160	  0.700	  0.397	  0.682	  0.085	 -0.003	 -9.756	 -0.004	  0.003	 -0.001	 32.700	 99.104	 -99999.000
8210	  0.701	  0.397	  0.680	  0.082	 -0.006	 -9.797	 -0.003	  0.003	  0.001	 32.700	 99.115	 -99999.000
8260	  0.702	  0.397	  0.677	  0.063	 -0.010	 -9.745	 -0.004	  0.003	 -0.001	 32.700	 99.108	 -99999.000
8310	  0.700	  0.396	  0.684	  0.114	 -0.005	 -9.796	 -0.004	  0.002	  0.001	 32.700	 99.115	 -99999.000
8360	  0.699	  0.398	  0.672	  0.078	 -0.003	 -9.780	 -0.003	  0.003	  0.001	 32.700	 99.093	 -99999.000
8411	  0.699	  0.398	  0.681	  0.090	 -0.004	 -9.759	 -0.003	  0.001	  0.002	 32.700	 99.108	 -99999.000
8460	  0.699	  0.396	  0.685	  0.058	 -0.006	 -9.768	 -0.003	  0.002	 -0.000	 32.700	 99.115	 -99999.000
8511	  0.699	  0.401	  0.681	  0.090	 -0.002	 -9.774	 -0.003	  0.002	 -0.000	 32.700	 99.093	 -99999.000
8560	  0.700	  0.401	  0.684	  0.078	 -0.001	 -9.774	 -0.003	  0.002	  0.001	 32.700	 99.104	 -99999.000
8610	  0.700	  0.399	  0.677	  0.080	 -0.000	 -9.742	 -0.004	  0.003	 -0.000	 32.700	 99.108	 -99999.000
8660	  0.700	  0.396	  0.682	  0.110	  0.005	 -9.747	 -0.003	  0.002	  0.000	 32.700	 99.104	 -99999.000
8711	  0.700	  0.398	  0.678	  0.094	 -0.013	 -9.733	 -0.003	  0.002	  0.000	 32.700	 99.104	 -99999.000
8761	  0.700	  0.401	  0.681	  0.088	  0.008	 -9.745	 -0.003	  0.001	  0.000	 32.700	 99.104	 -99999.000
8811	  0.702	  0.398	  0.683	  0.105	  0.001	 -9.762	 -0.004	  0.003	  0.001	 32.700	 99.104	 -99999.000
8861	  0.698	  0.397	  0.677	  0.095	 -0.013	 -9.785	 -0.003	  0.003	 -0.000	 32.700	 99.104	 -99999.000
8911	  0.701	  0.399	  0.681	  0.068	 -0.001	 -9.771	 -0.004	  0.003	  0.001	 32.700	 99.093	 -99999.000
8961	  0.700	  0.398	  0.677	  0.082	 -0.018	 -9.750	 -0.003	  0.002	  0.000	 32.700	 99.104	 -99999.000
9011	  0.700	  0.395	  0.682	  0.105	  0.010	 -9.765	 -0.003	  0.002	  0.001	 32.700	 99.104	 -99999.000
9061	  0.700	  0.398	  0.673	  0.095	 -0.021	 -9.791	 -0.003	  0.003	  0.000	 32.700	 99.081	 -99999.000
9111	  0.700	  0.404	  0.682	  0.095	 -0.012	 -9.764	 -0.004	  0.003	 -0.000	 32.700	 99.104	 -99999.000
9161	  0.700	  0.404	  0.681	  0.068	  0.025	 -9.776	 -0.003	  0.002	  0.000	 32.700	 99.093	 -99999.000
9211	  0.701	  0.397	  0.684	  0.089	  0.005	 -9.767	 -0.004	  0.003	  0.001	 32.700	 99.108	 -99999.000
9261	  0.700	  0.402	  0.681	  0.081	 -0.014	 -9.786	 -0.004	  0.003	 -0.000	 32.700	 99.119	 -99999.000
9311	  0.699	  0.398	  0.682	  0.082	 -0.008	 -9.802	 -0.003	  0.002	  0.000	 32.700	 99.104	 -99999.000
9361	  0.701	  0.398	  0.683	  0.068	 -0.016	 -9.761	 -0.004	  0.002	  0.001	 32.700	 99.104	 -99999.000
9411	  0.701	  0.396	  0.680	  0.080	 -0.007	 -9.773	 -0.003	  0.004	  0.001	 32.700	 99.115	 -99999.000
9461	  0.700	  0.394	  0.681	  0.093	 -0.030	 -9.749	 -0.004	  0.002	  0.001	 32.700	 99.104	 -99999.000
9511	  0.702	  0.399	  0.675	  0.076	 -0.005	 -9.772	 -0.003	  0.002	 -0.000	 32.700	 99.104	 -99999.000
9561	  0.698	  0.400	  0.684	  0.070	 -0.022	 -9.774	 -0.003	  0.002	 -0.000	 32.700	 99.093	 -99999.000
9611	  0.700	  0.399	  0.674	  0.085	 -0.014	 -9.789	 -0.004	  0.003	  0.001	 32.700	 99.108	 -99999.000
9661	  0.698	  0.398	  0.683	  0.093	 -0.003	 -9.758	 -0.004	  0.003	 -0.000	 32.700	 99.104	 -99999.000
9711	  0.701	  0.402	  0.680	  0.086	 -0.029	 -9.760	 -0.004	  0.002	 -0.001	 32.700	 99.104	 -99999.000
9761	  0.700	  0.398	  0.678	  0.108	 -0.006	 -9.774	 -0.003	  0.002	  0.001	 32.700	 99.104	 -99999.000
9811	  0.698	  0.398	  0.683	  0.101	 -0.007	 -9.758	 -0.004	  0.002	  0.001	 32.700	 99.093	 -99999.000
9861	  0.701	  0.400	  0.676	  0.077	  0.002	 -9.763	 -0.003	  0.003	 -0.000	 32.700	 99.104	 -99999.000
9911	  0.699	  0.398	  0.678	  0.096	  0.004	 -9.776	 -0.004	  0.002	  0.000	 32.700	 99.115	 -99999.000
9961	  0.702	  0.402	  0.680	  0.103	 -0.013	 -9.762	 -0.003	  0.003	 -0.001	 32.700	 99.115	 -99999.000
10011	  0.699	  0.398	  0.678	  0.052	 -0.015	 -9.762	 -0.005	  0.003	  0.001	 32.700	 99.104	 -99999.000
10061	  0.700	  0.402	  0.672	  0.081	 -0.021	 -9.794	 -0.003	  0.002	  0.001	 32.700	 99.104	 -99999.000
10111	  0.701	  0.398	  0.680	  0.081	 -0.015	 -9.756	 -0.003	  0.004	  0.000	 32.700	 99.104	 -99999.000
10161	  0.701	  0.399	  0.680	  0.107	 -0.014	 -9.761	 -0.003	  0.002	 -0.000	 32.700	 99.097	 -99999.000
10211	  0.700	  0.396	  0.684	  0.073	  0.010	 -9.793	 -0.004	  0.003	 -0.000	 32.700	 99.104	 -99999.000
10261	  0.700	  0.399	  0.682	  0.058	  0.009	 -9.783	 -0.004	  0.003	  0.000	 32.700	 99.104	 -99999.000
10311	  0.699	  0.401	  0.676	  0.094	  0.003	 -9.738	 -0.004	  0.002	  0.000	 32.700	 99.104	 -99999.000
10361	  0.700	  0.397	  0.683	  0.083	  0.006	 -9.772	 -0.004	  0.002	 -0.000	 32.700	 99.104	 -99999.000
10411	  0.701	  0.400	  0.680	  0.104	 -0.021	 -9.736	 -0.005	  0.002	  0.000	 32.700	 99.104	 -99999.000
10461	  0.701	  0.397	  0.683	  0.082	 -0.007	 -9.746	 -0.003	  0.002	 -0.000	 32.700	 99.104	 -99999.000
10511	  0.698	  0.400	  0.676	  0.068	 -0.011	 -9.761	 -0.002	  0.003	 -0.001	 32.700	 99.093	 -99999.000
10561	  0.700	  0.398	  0.681	  0.095	 -0.009	 -9.776	 -0.004	  0.002	 -0.001	 32.700	 99.108	 -99999.000
10611	  0.699	  0.402	  0.676	  0.048	  0.014	 -9.757	 -0.003	  0.002	 -0.001	 32.700	 99.093	 -99999.000
10661	  0.700	  0.401	  0.685	  0.072	 -0.031	 -9.840	 -0.004	  0.002	 -0.000	 32.700	 99.119	 -99999.000
10711	  0.701	  0.398	  0.681	  0.106	  0.010	 -9.767	 -0.004	  0.002	  0.001	 32.700	 99.085	 -99999.000
10761	  0.700	  0.395	  0.682	  0.072	 -0.028	 -9.762	 -0.004	  0.003	 -0.000	 32.700	 99.104	 -99999.000
10811	  0.700	  0.399	  0.680	  0.089	  0.009	 -9.762	 -0.004	  0.002	 -0.000	 32.700	 99.108	 -99999.000
10861	  0.700	  0.401	  0.681	  0.088	  0.012	 -9.748	 -0.003	  0.003	  0.001	 32.700	 99.104	 -99999.000
10911	  0.701	  0.399	  0.682	  0.080	 -0.021	 -9.745	 -0.004	  0.002	  0.001	 32.700	 99.104	 -99999.000
10961	  0.700	  0.398	  0.677	  0.120	  0.021	 -9.786	 -0.003	  0.002	  0.001	 32.700	 99.093	 -99999.000
11011	  0.699	  0.399	  0.681	  0.061	 -0.009	 -9.784	 -0.003	  0.002	 -0.001	 32.700	 99.104	 -99999.000
11061	  0.699	  0.397	  0.673	  0.086	 -0.014	 -9.777	 -0.003	  0.003	 -0.000	 32.700	 99.104	 -99999.000
11111	  0.700	  0.399	  0.683	  0.070	  0.001	 -9.751	 -0.003	  0.002	 -0.001	 32.700	 99.104	 -99999.000
11161	  0.700	  0.399	  0.677	  0.075	 -0.015	 -9.755	 -0.003	  0.002	  0.000	 32.700	 99.097	 -99999.000
11211	  0.698	  0.398	  0.683	  0.094	 -0.001	 -9.771	 -0.003	  0.003	  0.000	 32.700	 99.104	 -99999.000
14111	  0.700	  0.401	  0.683	  0.067	  0.001	 -9.748	 -0.003	  0.003	  0.002	 32.700	 99.097	  0.570
14161	  0.700	  0.404	  0.679	  0.082	 -0.016	 -9.757	 -0.005	  0.002	 -0.000	 32.700	 99.104	 -0.064
14211	  0.699	  0.400	  0.678	  0.103	 -0.019	 -9.766	 -0.003	  0.003	 -0.001	 32.700	 99.104	 -0.064
14261	  0.700	  0.400	  0.681	  0.074	 -0.017	 -9.774	 -0.004	  0.002	  0.001	 32.700	 99.108	 -0.427
14311	  0.699	  0.399	  0.682	  0.082	 -0.014	 -9.759	 -0.002	  0.002	  0.000	 32.700	 99.104	 -0.064
14361	  0.701	  0.405	  0.682	  0.060	  0.001	 -9.773	 -0.003	  0.002	  0.000	 32.700	 99.108	 -0.427
14411	  0.700	  0.400	  0.679	  0.094	  0.002	 -9.774	 -0.003	  0.003	 -0.000	 32.700	 99.108	 -0.427
14461	  0.699	  0.398	  0.681	  0.061	  0.002	 -9.802	 -0.003	  0.001	 -0.000	 32.700	 99.097	  0.570
14511	  0.701	  0.399	  0.681	  0.094	  0.010	 -9.774	 -0.004	  0.002	  0.001	 32.700	 99.108	 -0.427
14561	  0.700	  0.399	  0.683	  0.093	  0.014	 -9.757	 -0.003	  0.002	  0.001	 32.700	 99.104	 -0.064
14611	  0.699	  0.398	  0.677	  0.082	 -0.026	 -9.729	 -0.004	  0.003	  0.000	 32.700	 99.093	  0.933
14661	  0.701	  0.396	  0.676	  0.103	 -0.030	 -9.759	 -0.004	  0.002	 -0.000	 32.700	 99.093	  0.933
14711	  0.699	  0.397	  0.679	  0.090	 -0.012	 -9.758	 -0.004	  0.003	  0.001	 32.700	 99.108	 -0.427
14761	  0.702	  0.397	  0.676	  0.067	  0.010	 -9.746	 -0.004	  0.003	 -0.000	 32.700	 99.108	 -0.427
14811	  0.698	  0.395	  0.678	  0.078	  0.000	 -9.757	 -0.003	  0.002	  0.001	 32.700	 99.108	 -0.427
14861	  0.700	  0.399	  0.683	  0.080	  0.008	 -9.750	 -0.004	  0.002	  0.001	 32.700	 99.104	 -0.064
14911	  0.700	  0.399	  0.681	  0.090	 -0.008	 -9.807	 -0.004	  0.002	  0.001	 32.700	 99.097	  0.570
14961	  0.701	  0.396	  0.682	  0.085	 -0.013	 -9.734	 -0.004	  0.003	 -0.001	 32.700	 99.104	 -0.064
15011	  0.700	  0.398	  0.676	  0.072	 -0.006	 -9.753	 -0.004	  0.001	  0.001	 32.700	 99.108	 -0.427
15061	  0.702	  0.396	  0.684	  0.100	 -0.007	 -9.772	 -0.003	  0.003	 -0.001	 32.700	 99.093	  0.933
15111	  0.701	  0.400	  0.682	  0.080	 -0.002	 -9.782	 -0.003	  0.001	 -0.000	 32.700	 99.097	  0.570
15161	  0.701	  0.402	  0.682	  0.091	 -0.002	 -9.743	 -0.003	  0.004	  0.001	 32.700	 99.108	 -0.427
15211	  0.700	  0.402	  0.678	  0.096	 -0.030	 -9.779	 -0.003	  0.002	 -0.000	 32.700	 99.108	 -0.427
15261	  0.701	  0.397	  0.683	  0.071	 -0.021	 -9.732	 -0.002	  0.003	  0.001	 32.700	 99.108	 -0.427
15311	  0.701	  0.397	  0.680	  0.080	 -0.013	 -9.751	 -0.004	  0.001	  0.001	 32.700	 99.093	  0.933
15361	  0.701	  0.398	  0.682	  0.083	 -0.005	 -9.732	 -0.003	  0.003	  0.000	 32.700	 99.119	 -1.425
15411	  0.698	  0.401	  0.682	  0.095	 -0.011	 -9.787	 -0.003	  0.002	 -0.000	 32.700	 99.108	 -0.427
15461	  0.702	  0.396	  0.681	  0.091	 -0.022	 -9.824	 -0.003	  0.004	  0.001	 32.700	 99.108	 -0.427
15511	  0.701	  0.399	  0.680	  0.078	  0.038	 -9.608	 -0.004	  0.004	  0.001	 32.700	 99.108	 -0.427
15561	  0.702	  0.406	  0.678	  0.089	 -0.030	 -9.721	 -0.004	  0.003	  0.001	 32.700	 99.093	  0.933
15611	  0.700	  0.400	  0.683	  0.079	 -0.005	 -9.778	 -0.003	  0.002	  0.000	 32.700	 99.104	 -0.064
15661	  0.698	  0.399	  0.677	  0.080	 -0.004	 -9.775	 -0.005	  0.003	  0.001	 32.700	 99.108	 -0.427
15711	  0.698	  0.400	  0.682	  0.064	  0.018	 -9.728	 -0.002	  0.001	 -0.000	 32.700	 99.093	  0.933
15761	  0.700	  0.401	  0.682	  0.107	  0.018	 -9.741	 -0.004	  0.003	  0.000	 32.700	 99.108	 -0.427
15811	  0.701	  0.398	  0.675	  0.089	 -0.019	 -9.772	 -0.002	  0.001	  0.001	 32.700	 99.108	 -0.427
15861	  0.700	  0.399	  0.680	  0.096	 -0.006	 -9.804	 -0.004	  0.003	  0.000	 32.700	 99.093	  0.933
15911	  0.699	  0.399	  0.683	  0.062	 -0.017	 -9.769	 -0.004	  0.003	 -0.001	 32.700	 99.108	 -0.427
15961	  0.700	  0.398	  0.681	  0.074	 -0.027	 -9.763	 -0.004	  0.003	 -0.000	 32.700	 99.097	  0.570
16011	  0.698	  0.400	  0.679	  0.091	 -0.005	 -9.756	 -0.005	  0.003	 -0.000	 32.700	 99.097	  0.570
16061	  0.699	  0.396	  0.682	  0.077	 -0.017	 -9.760	 -0.004	  0.003	 -0.001	 32.700	 99.108	 -0.427
16111	  0.701	  0.399	  0.682	  0.074	 -0.013	 -9.760	 -0.002	  0.002	  0.000	 32.700	 99.097	  0.570
16161	  0.699	  0.400	  0.681	  0.058	  0.014	 -9.759	 -0.004	  0.002	 -0.000	 32.700	 99.108	 -0.427
16211	  0.700	  0.399	  0.675	  0.085	 -0.011	 -9.790	 -0.004	  0.003	  0.000	 32.700	 99.108	 -0.427
16261	  0.701	  0.396	  0.683	  0.088	 -0.006	 -9.780	 -0.004	  0.002	  0.000	 32.700	 99.104	 -0.064
16311	  0.699	  0.401	  0.674	  0.081	  0.006	 -9.743	 -0.003	  0.003	  0.001	 32.700	 99.101	  0.207
16361	  0.700	  0.402	  0.681	  0.087	 -0.017	 -9.775	 -0.004	  0.000	  0.001	 32.700	 99.108	 -0.427
16411	  0.702	  0.398	  0.678	  0.069	 -0.009	 -9.767	 -0.004	  0.002	 -0.001	 32.700	 99.104	 -0.064
16461	  0.698	  0.397	  0.677	  0.091	 -0.028	 -9.728	 -0.004	  0.002	 -0.000	 32.700	 99.097	  0.570
16511	  0.699	  0.397	  0.677	  0.118	 -0.024	 -9.770	 -0.003	  0.002	 -0.001	 32.700	 99.097	  0.570
16561	  0.699	  0.398	  0.679	  0.072	  0.004	 -9.790	 -0.003	  0.002	 -0.000	 32.700	 99.108	 -0.427
16611	  0.701	  0.400	  0.681	  0.107	 -0.017	 -9.758	 -0.003	  0.002	 -0.000	 32.700	 99.104	 -0.064
16661	  0.700	  0.399	  0.676	  0.075	  0.010	 -9.767	 -0.005	  0.001	  0.001	 32.700	 99.097	  0.570
16711	  0.700	  0.397	  0.681	  0.086	 -0.006	 -9.749	 -0.004	  0.002	  0.000	 32.700	 99.108	 -0.427
16761	  0.702	  0.401	  0.676	  0.078	 -0.008	 -9.765	 -0.005	  0.003	 -0.001	 32.700	 99.108	 -0.427
16811	  0.698	  0.402	  0.684	  0.088	 -0.015	 -9.779	 -0.003	  0.002	  0.001	 32.700	 99.108	 -0.427
16861	  0.699	  0.397	  0.681	  0.073	 -0.020	 -9.736	 -0.003	  0.002	  0.001	 32.700	 99.119	 -1.425
16911	  0.698	  0.395	  0.682	  0.100	 -0.022	 -9.763	 -0.003	  0.003	  0.000	 32.700	 99.108	 -0.427
16960	  0.699	  0.410	  0.682	  0.078	 -0.006	 -9.756	 -0.003	  0.002	 -0.000	 32.700	 99.108	 -0.427
17010	  0.701	  0.404	  0.682	  0.067	 -0.030	 -9.753	 -0.004	  0.002	  0.000	 32.700	 99.108	 -0.427
17060	  0.699	  0.396	  0.679	  0.073	 -0.009	 -9.734	 -0.003	  0.003	 -0.000	 32.700	 99.097	  0.570
17110	  0.700	  0.399	  0.683	  0.083	 -0.001	 -9.769	 -0.004	  0.003	  0.001	 32.700	 99.097	  0.570
17160	  0.697	  0.395	  0.674	  0.080	 -0.023	 -9.792	 -0.003	  0.002	  0.000	 32.700	 99.108	 -0.427
17210	  0.698	  0.399	  0.682	  0.069	  0.014	 -9.749	 -0.004	  0.003	  0.000	 32.700	 99.108	 -0.427
17260	  0.699	  0.397	  0.685	  0.074	 -0.032	 -9.786	 -0.003	  0.002	  0.001	 32.700	 99.108	 -0.427
17310	  0.700	  0.398	  0.681	  0.084	 -0.001	 -9.774	 -0.004	  0.002	 -0.000	 32.700	 99.097	  0.570
17360	  0.699	  0.397	  0.682	  0.090	 -0.007	 -9.757	 -0.004	  0.001	  0.001	 32.700	 99.108	 -0.427
17410	  0.698	  0.399	  0.684	  0.092	 -0.021	 -9.752	 -0.002	  0.002	  0.000	 32.700	 99.108	 -0.427
17460	  0.699	  0.399	  0.679	  0.098	 -0.019	 -9.768	 -0.004	  0.003	  0.001	 32.700	 99.108	 -0.427
17510	  0.700	  0.400	  0.683	  0.065	 -0.006	 -9.765	 -0.004	  0.003	  0.000	 32.700	 99.097	  0.570
17560	  0.700	  0.398	  0.685	  0.097	 -0.014	 -9.742	 -0.003	  0.003	  0.001	 32.700	 99.108	 -0.427
17610	  0.701	  0.396	  0.677	  0.098	  0.002	 -9.748	 -0.003	  0.003	  0.002	 32.700	 99.108	 -0.427
17660	  0.698	  0.396	  0.682	  0.062	 -0.021	 -9.606	 -0.003	  0.001	  0.001	 32.700	 99.108	 -0.427
17710	  0.700	  0.398	  0.678	  0.064	  0.024	 -9.821	 -0.004	  0.002	  0.000	 32.700	 99.108	 -0.427
17760	  0.700	  0.398	  0.680	  0.100	 -0.011	 -9.698	 -0.004	  0.003	  0.001	 32.700	 99.108	 -0.427
17810	  0.701	  0.396	  0.681	  0.070	 -0.019	 -9.776	 -0.003	  0.002	 -0.001	 32.700	 99.097	  0.570
17860	  0.699	  0.395	  0.681	  0.079	  0.012	 -9.755	 -0.002	  0.002	 -0.001	 32.700	 99.097	  0.570
17910	  0.697	  0.398	  0.675	  0.102	 -0.005	 -9.746	 -0.004	  0.002	  0.001	 32.700	 99.108	 -0.427
17960	  0.700	  0.398	  0.683	  0.089	 -0.017	 -9.768	 -0.003	  0.002	  0.001	 32.700	 99.104	 -0.064
18010	  0.701	  0.401	  0.684	  0.083	 -0.016	 -9.770	 -0.004	  0.002	  0.000	 32.700	 99.108	 -0.427
18060	  0.702	  0.401	  0.680	  0.107	 -0.012	 -9.757	 -0.004	  0.001	 -0.000	 32.700	 99.097	  0.570
18110	  0.702	  0.396	  0.683	  0.083	 -0.014	 -9.768	 -0.003	  0.003	 -0.000	 32.700	 99.108	 -0.427
18160	  0.702	  0.398	  0.680	  0.092	  0.005	 -9.783	 -0.004	  0.002	  0.000	 32.700	 99.108	 -0.427
18210	  0.700	  0.398	  0.678	  0.092	 -0.024	 -9.757	 -0.004	  0.002	  0.001	 32.700	 99.097	  0.570
18260	  0.700	  0.403	  0.681	  0.086	 -0.007	 -9.733	 -0.003	  0.003	  0.001	 32.700	 99.097	  0.570
18310	  0.699	  0.399	  0.679	  0.079	  0.009	 -9.753	 -0.003	  0.002	  0.001	 32.700	 99.108	 -0.427
18360	  0.700	  0.396	  0.682	  0.078	  0.004	 -9.779	 -0.003	  0.004	  0.001	 32.700	 99.108	 -0.427
18410	  0.701	  0.401	  0.677	  0.082	 -0.010	 -9.750	 -0.004	  0.002	 -0.001	 32.700	 99.097	  0.570
18460	  0.700	  0.397	  0.678	  0.080	 -0.016	 -9.762	 -0.004	  0.004	  0.001	 32.700	 99.108	 -0.427
18510	  0.702	  0.398	  0.678	  0.071	  0.000	 -9.772	 -0.002	  0.002	 -0.000	 32.700	 99.097	  0.570
18560	  0.701	  0.397	  0.681	  0.111	  0.001	 -9.729	 -0.004	  0.002	 -0.000	 32.700	 99.104	 -0.064
18610	  0.699	  0.406	  0.682	  0.093	 -0.022	 -9.741	 -0.003	  0.002	  0.000	 32.700	 99.108	 -0.427
18660	  0.700	  0.398	  0.684	  0.085	 -0.016	 -9.763	 -0.003	  0.002	 -0.001	 32.700	 99.108	 -0.427
18710	  0.701	  0.399	  0.676	  0.097	  0.002	 -9.756	 -0.004	  0.002	  0.000	 32.700	 99.097	  0.570
18760	  0.700	  0.398	  0.685	  0.064	 -0.015	 -9.761	 -0.004	  0.001	  0.001	 32.700	 99.093	  0.933
18810	  0.701	  0.397	  0.682	  0.074	 -0.024	 -9.786	 -0.004	  0.002	  0.001	 32.700	 99.097	  0.570
18860	  0.702	  0.402	  0.683	  0.078	 -0.012	 -9.768	 -0.002	  0.003	  0.000	 32.700	 99.097	  0.570
18910	  0.698	  0.396	  0.677	  0.067	 -0.004	 -9.765	 -0.004	  0.002	  0.001	 32.700	 99.108	 -0.427
18960	  0.700	  0.397	  0.676	  0.083	 -0.008	 -9.752	 -0.004	  0.002	  0.001	 32.700	 99.108	 -0.427
19010	  0.699	  0.399	  0.681	  0.071	  0.003	 -9.744	 -0.003	  0.002	  0.000	 32.700	 99.097	  0.570
19061	  0.701	  0.397	  0.677	  0.060	 -0.023	 -9.785	 -0.002	  0.003	 -0.001	 32.700	 99.108	 -0.427
19110	  0.700	  0.399	  0.684	  0.083	 -0.002	 -9.739	 -0.003	  0.003	  0.000	 32.700	 99.097	  0.570
19161	  0.701	  0.398	  0.682	  0.086	  0.008	 -9.771	 -0.004	  0.001	  0.000	 32.700	 99.097	  0.570
19210	  0.701	  0.399	  0.682	  0.076	 -0.007	 -9.761	 -0.003	  0.002	 -0.000	 32.700	 99.093	  0.933
19260	  0.701	  0.401	  0.680	  0.067	 -0.006	 -9.769	 -0.003	  0.002	  0.000	 32.700	 99.112	 -0.790
19310	  0.700	  0.395	  0.681	  0.094	 -0.002	 -9.781	 -0.004	  0.002	 -0.000	 32.700	 99.097	  0.570
19360	  0.700	  0.397	  0.683	  0.065	 -0.015	 -9.776	 -0.004	  0.003	 -0.000	 32.700	 99.097	  0.570
19410	  0.700	  0.393	  0.682	  0.087	 -0.004	 -9.724	 -0.004	  0.002	  0.000	 32.700	 99.108	 -0.427
19460	  0.699	  0.397	  0.681	  0.083	 -0.006	 -9.769	 -0.004	  0.003	  0.001	 32.700	 99.108	 -0.427
19511	  0.699	  0.403	  0.683	  0.071	 -0.012	 -9.759	 -0.003	  0.003	  0.000	 32.700	 99.108	 -0.427
19561	  0.700	  0.394	  0.682	  0.103	 -0.025	 -9.774	 -0.004	  0.002	 -0.000	 32.700	 99.097	  0.570
19611	  0.699	  0.402	  0.681	  0.083	 -0.006	 -9.799	 -0.003	  0.002	  0.001	 32.700	 99.119	 -1.425
19661	  0.700	  0.400	  0.685	  0.091	 -0.007	 -9.797	 -0.003	  0.003	 -0.001	 32.700	 99.108	 -0.427
19711	  0.702	  0.399	  0.681	  0.072	 -0.007	 -9.756	 -0.003	  0.003	  0.001	 32.700	 99.108	 -0.427
19761	  0.699	  0.409	  0.683	  0.097	 -0.006	 -9.747	 -0.004	  0.002	 -0.000	 32.700	 99.097	  0.570
19811	  0.701	  0.405	  0.678	  0.093	  0.019	 -9.771	 -0.004	  0.003	  0.000	 32.700	 99.097	  0.570
19861	  0.700	  0.396	  0.674	  0.070	 -0.016	 -9.717	 -0.004	  0.001	 -0.000	 32.700	 99.097	  0.570
19911	  0.698	  0.394	  0.678	  0.109	  0.014	 -9.673	 -0.005	  0.003	  0.001	 32.700	 99.097	  0.570
19961	  0.700	  0.396	  0.683	  0.039	 -0.063	 -9.874	 -0.003	  0.002	 -0.000	 32.700	 99.119	 -1.425
20011	  0.699	  0.400	  0.679	  0.065	  0.028	 -9.542	 -0.005	  0.001	  0.001	 32.700	 99.097	  0.570
20061	  0.700	  0.404	  0.681	  0.080	  0.027	 -9.772	 -0.003	  0.004	 -0.001	 32.700	 99.097	  0.570
20111	  0.700	  0.398	  0.681	  0.082	 -0.006	 -9.720	 -0.003	  0.001	  0.000	 32.700	 99.097	  0.570
20161	  0.701	  0.399	  0.678	  0.065	 -0.011	 -9.852	 -0.004	  0.003	 -0.000	 32.700	 99.104	 -0.064
20211	  0.701	  0.399	  0.684	  0.091	  0.001	 -9.730	 -0.003	  0.002	  0.000	 32.700	 99.097	  0.570
20261	  0.701	  0.396	  0.682	  0.150	 -0.118	 -9.844	  0.003	  0.003	 -0.018	 32.700	 99.108	 -0.427
20311	  0.699	  0.406	  0.685	 -0.874	  0.469	 -9.840	 -0.004	  0.001	 -0.273	 32.700	 99.108	 -0.427
20361	  0.700	  0.410	  0.681	 -0.004	 -0.977	 -9.794	  0.001	  0.010	 -0.029	 32.700	 99.097	  0.570
20411	  0.701	  0.389	  0.675	  1.006	 -0.100	 -9.646	  0.035	  0.045	  0.322	 32.700	 99.097	  0.570
20461	  0.709	  0.382	  0.668	 -0.004	  0.035	 -9.649	  0.022	  0.018	  0.070	 32.700	 99.108	 -0.427
20511	  0.706	  0.378	  0.670	  0.148	 -0.585	 -9.552	 -0.006	  0.032	  0.042	 32.700	 99.112	 -0.790
20561	  0.707	  0.384	  0.670	 -0.200	 -0.322	 -9.764	  0.007	  0.005	 -0.143	 32.700	 99.108	 -0.427
20611	  0.708	  0.401	  0.658	  2.360	 -0.534	 -14.014	  0.508	 -0.877	 -0.488	 32.700	 99.097	  0.570
20661	  0.711	  0.410	  0.629	 -3.728	  2.735	 -10.080	  1.230	 -1.198	  0.774	 32.700	 99.097	  0.570
20711	  0.717	  0.358	  0.571	 -3.463	 -5.323	 -0.409	 -1.569	  0.956	  1.185	 32.700	 99.108	 -0.427
20761	  0.710	  0.250	  0.618	 11.753	  3.231	 -17.037	  0.184	  0.342	 -1.528	 32.700	 99.112	 -0.790
20811	  0.746	  0.349	  0.570	 -6.622	  5.071	 -9.772	  2.126	 -1.023	 -0.496	 32.700	 99.108	 -0.427
20861	  0.685	  0.352	  0.626	  1.236	 -4.887	 -4.020	 -3.571	  1.858	 -0.815	 32.700	 99.108	 -0.427
20911	  0.704	  0.306	  0.640	 -1.134	  3.555	 -16.971	  2.200	 -1.413	  0.682	 32.700	 99.108	 -0.427
20961	  0.696	  0.353	  0.625	 -2.040	 -1.196	 -4.628	 -0.539	  1.155	 -0.083	 32.700	 99.097	  0.570
21011	  0.711	  0.305	  0.649	  3.647	 -3.810	 -20.784	  1.332	 -1.915	 -0.516	 32.700	 99.101	  0.207
21061	  0.723	  0.391	  0.617	 -9.836	  6.532	 -12.467	  1.649	 -0.612	 -0.646	 32.700	 99.119	 -1.425
21111	  0.653	  0.364	  0.639	  5.211	 -2.679	 -0.076	 -3.892	  2.327	  0.667	 32.700	 99.097	  0.570
21161	  0.707	  0.323	  0.652	 -9.761	  2.631	 -10.847	  0.708	 -1.264	 -0.716	 32.700	 99.097	  0.570
21211	  0.673	  0.412	  0.589	  3.090	 -0.758	 -3.849	  3.681	  1.600	 -0.693	 32.700	 99.108	 -0.427
21261	  0.665	  0.415	  0.631	  2.789	  0.884	 -7.870	 -4.457	 -1.344	  0.550	 32.700	 99.108	 -0.427
21311	  0.669	  0.381	  0.662	 -3.198	  2.850	 -8.289	  0.114	 -0.499	 -0.350	 32.700	 99.097	  0.570
21361	  0.638	  0.388	  0.627	 -3.441	  0.573	  0.548	  1.203	  0.788	  0.182	 32.700	 99.097	  0.570
21411	  0.645	  0.354	  0.660	  8.841	 -2.091	 -6.426	 -3.147	 -0.604	  0.606	 32.700	 99.097	  0.570
21461	  0.713	  0.428	  0.618	 -9.752	  1.482	 -12.863	  2.304	 -1.013	 -0.757	 32.700	 99.108	 -0.427
21511	  0.694	  0.436	  0.606	  3.746	 -2.809	 -2.302	 -1.368	  0.910	  0.162	 32.700	 99.108	 -0.427
21561	  0.672	  0.398	  0.669	  6.554	 -3.773	 -6.402	  0.519	  0.411	  0.071	 32.700	 99.097	  0.570
21611	  0.716	  0.447	  0.601	 -2.320	 -1.602	 -14.436	  1.600	 -1.288	 -0.225	 32.700	 99.097	  0.570
21661	  0.670	  0.443	  0.591	  2.317	  0.201	 -1.456	 -2.175	  1.109	  0.382	 32.700	 99.097	  0.570
21711	  0.671	  0.390	  0.662	 12.203	 -8.447	 -12.404	  1.315	  0.622	  0.620	 32.700	 99.101	  0.207
21761	  0.720	  0.509	  0.575	 -8.136	  1.183	 -15.042	  2.267	 -2.033	 -0.331	 32.700	 99.085	  1.659
21811	  0.681	  0.463	  0.581	  4.951	 -0.714	 -4.426	 -3.456	  1.685	  1.076	 32.700	 99.101	  0.207
21861	  0.659	  0.347	  0.681	 17.994	 -3.213	 -18.436	 -0.533	  0.824	  0.722	 32.700	 99.108	 -0.427
21911	  0.686	  0.466	  0.580	 -3.566	 -2.379	 -14.700	  3.530	 -1.502	 -1.235	 32.700	 99.097	  0.570
21961	  0.603	  0.516	  0.567	  2.515	  1.048	  1.161	 -1.919	  1.738	 -0.046	 32.700	 99.097	  0.570
22011	  0.651	  0.382	  0.667	  5.072	  5.940	 -6.371	 -2.308	 -1.021	  0.715	 32.700	 99.112	 -0.790
22061	  0.686	  0.485	  0.623	 -4.472	  1.409	 -17.190	  2.916	 -2.688	 -0.913	 32.700	 99.108	 -0.427
22111	  0.675	  0.513	  0.566	 -2.013	 -0.120	 -7.195	 -1.101	  0.865	  0.207	 32.700	 99.097	  0.570
22161	  0.639	  0.383	  0.656	  6.649	  0.636	 -0.869	 -3.663	  0.870	  0.827	 32.700	 99.108	 -0.427
22211	  0.664	  0.426	  0.642	 -0.497	  2.047	 -9.487	  0.750	 -0.001	 -0.517	 32.700	 99.097	  0.570
22261	  0.663	  0.450	  0.625	 -0.080	 -0.462	 -10.599	  0.244	  0.038	 -0.281	 32.700	 99.112	 -0.790
22311	  0.653	  0.429	  0.639	  0.758	  1.708	 -6.972	 -0.675	 -0.904	  0.032	 32.700	 99.097	  0.570
22361	  0.659	  0.424	  0.634	 -0.157	  0.172	 -9.751	 -0.022	 -0.016	  0.062	 32.700	 99.097	  0.570
22411	  0.656	  0.413	  0.642	  1.683	 -0.792	 -13.272	 -0.817	 -0.031	 -0.027	 32.700	 99.108	 -0.427
22461	  0.636	  0.363	  0.654	 -4.469	  5.095	 -14.171	 -0.522	 -1.333	 -0.003	 32.700	 99.097	  0.570
22511	  0.611	  0.379	  0.582	 -2.889	 -0.692	  3.927	  3.191	  1.179	  0.870	 32.700	 99.097	  0.570
22561	  0.612	  0.414	  0.614	  7.405	 -4.934	  1.654	 -1.558	 -0.712	 -0.635	 32.700	 99.097	  0.570
22611	  0.656	  0.424	  0.645	 -0.366	  3.784	 -20.077	  0.537	 -0.852	 -1.429	 32.700	 99.097	  0.570
22661	  0.660	  0.423	  0.572	 -3.243	 -0.728	 -6.163	  2.022	  0.568	  0.734	 32.700	 99.097	  0.570
22711	  0.608	  0.373	  0.625	  9.836	 -5.401	  1.698	 -3.652	  0.681	 -0.083	 32.700	 99.112	 -0.790
22761	  0.655	  0.390	  0.666	 -0.815	  0.297	 -5.491	  0.391	 -0.693	 -0.690	 32.700	 99.097	  0.570
22811	  0.693	  0.478	  0.583	 -0.811	 -1.925	 -9.401	  2.778	  0.896	  0.531	 32.700	 99.085	  1.659
22861	  0.653	  0.475	  0.626	  4.415	 -4.058	 -8.651	 -4.440	 -0.320	 -0.547	 32.700	 99.108	 -0.427
22911	  0.613	  0.397	  0.680	 -5.573	  6.096	 -4.081	 -0.317	 -1.256	  0.321	 32.700	 99.119	 -1.425
22961	  0.639	  0.451	  0.583	  4.942	 -4.676	 -6.244	  2.949	  0.703	  0.087	 32.700	 99.108	 -0.427
23011	  0.641	  0.439	  0.623	  2.477	 -1.249	 -10.808	 -4.531	 -0.905	 -0.055	 32.700	 99.097	  0.570
23061	  0.621	  0.410	  0.663	 -3.200	  5.176	 -9.280	  1.787	 -0.755	 -0.347	 32.700	 99.097	  0.570
23111	  0.601	  0.481	  0.565	  0.125	 -1.598	 -5.819	  1.103	  0.664	  0.202	 32.700	 99.112	 -0.790
23161	  0.586	  0.381	  0.619	  7.636	 -3.124	 -0.347	 -4.509	  0.342	  1.119	 32.700	 99.108	 -0.427
23211	  0.660	  0.362	  0.664	  0.578	 -3.923	 -24.728	  2.175	 -1.658	 -1.026	 32.700	 99.119	 -1.425
23261	  0.631	  0.534	  0.528	 -4.347	  3.801	 -14.866	  4.173	  2.040	 -0.553	 32.700	 99.108	 -0.427
23311	  0.587	  0.484	  0.567	  6.601	 -5.707	 -4.901	 -4.720	 -1.088	  0.381	 32.700	 99.108	 -0.427
23361	  0.621	  0.319	  0.650	 -4.413	  5.607	 -12.335	 -1.403	  0.060	  0.581	 32.700	 99.097	  0.570
23411	  0.622	  0.386	  0.605	  0.580	 -3.368	 -10.206	  3.621	 -0.615	 -0.530	 32.700	 99.101	  0.207
23461	  0.596	  0.400	  0.603	  0.344	 -0.519	 -4.068	 -3.476	  0.514	  0.594	 32.700	 99.097	  0.570
23511	  0.653	  0.295	  0.651	 -7.420	 -0.069	 -31.007	  2.240	  0.331	 -0.732	 32.700	 99.108	 -0.427
23561	  0.624	  0.441	  0.575	 -3.763	  0.585	 -14.693	  4.247	 -0.263	 -1.315	 32.700	 99.108	 -0.427
23611	  0.546	  0.470	  0.555	  3.222	  2.810	  3.489	 -2.397	  0.879	  1.053	 32.700	 99.108	 -0.427
23661	  0.612	  0.293	  0.647	 -3.326	  3.523	 -17.616	 -4.491	 -0.747	  0.579	 32.700	 99.097	  0.570
23711	  0.668	  0.317	  0.595	 -6.198	 -0.999	 -11.054	  5.547	 -1.093	  0.313	 32.700	 99.108	 -0.427
23761	  0.635	  0.358	  0.584	  5.066	 -3.144	 -2.120	 -3.744	  0.015	  0.020	 32.700	 99.108	 -0.427
23811	  0.712	  0.248	  0.615	 -19.548	 -2.241	 -28.201	  0.744	  2.409	  0.741	 32.700	 99.112	 -0.790
23861	  0.692	  0.366	  0.559	  2.679	 -3.629	 -15.444	  3.209	  0.200	 -0.523	 32.700	 99.097	  0.570
23911	  0.656	  0.318	  0.599	 -2.961	  0.835	 -3.485	 -3.901	 -0.403	  0.432	 32.700	 99.097	  0.570
23961	  0.674	  0.263	  0.624	 -1.341	 -0.643	 -18.514	  1.464	 -0.154	 -0.635	 32.700	 99.108	 -0.427
24011	  0.602	  0.329	  0.618	 -10.855	  5.402	 -5.481	 -0.816	  1.178	 -0.683	 32.700	 99.108	 -0.427
24061	  0.566	  0.250	  0.646	 10.814	 -1.809	 -7.937	 -1.526	 -0.293	  0.864	 32.700	 99.097	  0.570
24111	  0.611	  0.250	  0.657	 -13.567	  8.053	 -11.448	  1.295	  0.105	 -0.574	 32.700	 99.097	  0.570
24161	  0.583	  0.337	  0.632	  7.527	 -4.860	 -5.353	  1.846	  1.215	  0.655	 32.700	 99.097	  0.570
24211	  0.626	  0.338	  0.630	 -3.529	  1.399	 -13.976	 -1.761	 -0.754	 -0.862	 32.700	 99.101	  0.207
24261	  0.589	  0.321	  0.661	 -0.391	  2.795	 -6.745	  0.302	  0.247	  0.071	 32.700	 99.097	  0.570
24311	  0.598	  0.344	  0.647	 -1.384	  0.164	 -11.048	  0.881	  0.297	  0.106	 32.700	 99.097	  0.570
24362	  0.588	  0.362	  0.633	 -1.370	  0.497	 -8.259	  0.466	  0.167	  0.300	 32.700	 99.108	 -0.427
24411	  0.584	  0.371	  0.618	 -0.201	  0.237	 -9.906	  0.584	  0.178	 -0.134	 32.700	 99.108	 -0.427
24461	  0.584	  0.395	  0.593	 -0.370	  0.396	 -9.228	  0.894	 -0.185	 -0.200	 32.700	 99.112	 -0.790
24511	  0.577	  0.426	  0.579	  0.244	 -0.214	 -9.564	  0.447	  0.379	 -0.090	 32.700	 99.124	 -1.878
24560	  0.581	  0.434	  0.574	 -1.271	 -0.502	 -8.884	  0.128	 -0.160	  0.031	 32.700	 99.097	  0.570
24610	  0.592	  0.436	  0.567	  0.482	 -0.579	 -10.458	 -0.077	  0.091	 -0.209	 32.700	 99.119	 -1.425
24660	  0.591	  0.444	  0.567	 -0.968	 -0.270	 -9.485	 -0.064	 -0.005	 -0.065	 32.700	 99.108	 -0.427
24710	  0.601	  0.440	  0.571	  0.485	 -1.021	 -9.979	 -0.223	  0.121	 -0.134	 32.700	 99.101	  0.207
24760	  0.593	  0.444	  0.577	 -0.459	 -0.370	 -9.502	 -0.410	  0.137	 -0.298	 32.700	 99.108	 -0.427
24811	  0.599	  0.443	  0.577	  1.043	 -0.093	 -9.953	 -0.224	 -0.067	 -0.071	 32.700	 99.108	 -0.427
24860	  0.616	  0.448	  0.574	 -1.506	  3.012	 -37.097	 -0.447	  0.930	  0.002	 32.700	 99.119	 -1.425
24911	  0.601	  0.460	  0.582	  0.121	 -0.861	 -11.017	  0.380	  0.400	  0.011	 32.700	 99.108	 -0.427
24961	  0.600	  0.462	  0.586	  0.228	 -0.010	 -9.642	 -0.099	  0.090	 -0.025	 32.700	 99.112	 -0.790
25011	  0.595	  0.456	  0.590	 -0.051	 -0.185	 -9.671	 -0.074	  0.081	  0.045	 32.700	 99.108	 -0.427
25061	  0.592	  0.449	  0.594	  0.120	  0.125	 -9.633	  0.162	  0.100	  0.096	 32.700	 99.112	 -0.790
25111	  0.595	  0.457	  0.591	 -0.008	 -1.104	 -9.253	 -0.034	  0.073	 -0.014	 32.700	 99.108	 -0.427
25161	  0.593	  0.441	  0.599	  0.433	 -0.623	 -8.278	 -0.367	 -0.139	  0.117	 32.700	 99.108	 -0.427
25211	  0.596	  0.447	  0.598	  0.171	 -0.138	 -9.744	 -0.024	 -0.018	  0.015	 32.700	 99.112	 -0.790
25261	  0.597	  0.443	  0.592	  0.070	  0.063	 -9.777	  0.020	  0.025	  0.008	 32.700	 99.108	 -0.427
25311	  0.596	  0.442	  0.595	  0.064	  0.012	 -9.734	 -0.021	 -0.016	  0.000	 32.700	 99.101	  0.207
25361	  0.597	  0.443	  0.599	  0.055	 -0.028	 -9.731	 -0.004	  0.002	 -0.001	 32.700	 99.097	  0.570
25411	  0.598	  0.440	  0.598	  0.145	  0.646	 -9.771	  0.061	 -0.014	  0.009	 32.700	 99.108	 -0.427
25461	  0.597	  0.450	  0.591	  0.103	 -0.362	 -9.890	 -0.155	 -0.084	 -0.012	 32.700	 99.097	  0.570
25512	  0.598	  0.445	  0.600	 -0.142	  0.058	 -9.739	 -0.005	  0.022	  0.006	 32.700	 99.112	 -0.790
25561	  0.599	  0.444	  0.593	  0.312	  0.032	 -9.753	 -0.004	 -0.012	  0.020	 32.700	 99.108	 -0.427
25611	  0.599	  0.447	  0.600	  0.364	  0.275	 -9.402	  0.142	 -0.216	 -0.150	 32.700	 99.097	  0.570
25661	  0.616	  0.462	  0.581	 -1.076	 -0.037	 -10.265	  0.292	 -0.276	  0.119	 32.700	 99.097	  0.570
25711	  0.619	  0.457	  0.579	 -0.390	 -0.630	 -9.950	 -0.006	  0.077	  0.074	 32.700	 99.097	  0.570
25761	  0.611	  0.450	  0.598	  0.037	  0.096	 -9.698	 -0.291	  0.299	 -0.088	 32.700	 99.097	  0.570
25811	  0.605	  0.453	  0.606	  0.179	 -0.034	 -9.727	 -0.003	  0.010	  0.007	 32.700	 99.108	 -0.427
25861	  0.602	  0.444	  0.605	  0.066	 -0.025	 -9.724	 -0.004	 -0.009	 -0.002	 32.700	 99.097	  0.570
25911	  0.605	  0.443	  0.600	  0.186	  0.093	 -9.593	  0.043	 -0.048	  0.051	 32.700	 99.119	 -1.425
25961	  0.610	  0.449	  0.604	  0.068	 -0.045	 -9.737	  0.070	 -0.115	 -0.038	 32.700	 99.097	  0.570
26011	  0.610	  0.451	  0.597	 -0.121	 -0.162	 -9.841	 -0.079	  0.076	 -0.010	 32.700	 99.108	 -0.427
26061	  0.607	  0.446	  0.606	  0.009	 -0.029	 -9.768	 -0.022	  0.028	  0.028	 32.700	 99.108	 -0.427
26111	  0.606	  0.445	  0.598	  0.084	 -0.068	 -9.739	 -0.021	  0.022	  0.031	 32.700	 99.097	  0.570
26161	  0.609	  0.448	  0.604	  0.243	 -0.138	 -9.720	  0.011	 -0.034	 -0.074	 32.700	 99.108	 -0.427
26211	  0.607	  0.447	  0.600	 -0.002	 -0.063	 -9.779	 -0.036	  0.013	 -0.086	 32.700	 99.097	  0.570
26261	  0.609	  0.449	  0.602	  0.349	 -0.017	 -9.785	  0.069	 -0.074	  0.142	 32.700	 99.112	 -0.790
26311	  0.615	  0.442	  0.601	 -0.229	 -0.054	 -9.816	 -0.149	  0.149	  0.211	 32.700	 99.097	  0.570
26361	  0.619	  0.432	  0.612	  0.141	  0.060	 -9.456	 -0.042	  0.065	  0.361	 32.700	 99.112	 -0.790
26411	  0.637	  0.421	  0.608	  3.744	  2.101	 -8.714	  0.140	 -0.860	  1.356	 32.700	 99.108	 -0.427
26461	  0.654	  0.399	  0.628	  1.041	 -1.709	 -3.366	  0.169	  0.293	  0.042	 32.700	 99.112	 -0.790
26511	  0.654	  0.408	  0.631	  0.092	 -0.162	 -9.817	  0.316	 -0.089	 -0.057	 32.700	 99.101	  0.207
26561	  0.655	  0.409	  0.625	  0.010	 -1.129	 -10.415	 -0.553	  0.307	  0.070	 32.700	 99.108	 -0.427
26611	  0.651	  0.396	  0.623	  0.505	 -0.212	 -9.828	  0.000	  0.016	 -0.009	 32.700	 99.112	 -0.790
26661	  0.654	  0.397	  0.623	  0.080	  0.020	 -9.799	 -0.005	  0.001	 -0.017	 32.700	 99.112	 -0.790
26711	  0.655	  0.399	  0.627	  0.091	 -0.067	 -9.761	 -0.003	  0.010	 -0.010	 32.700	 99.101	  0.207
26761	  0.653	  0.398	  0.624	  0.146	 -0.001	 -9.702	  0.001	  0.037	 -0.000	 32.700	 99.112	 -0.790
26811	  0.650	  0.396	  0.623	  0.008	  0.138	 -9.791	 -0.005	  0.006	 -0.042	 32.700	 99.101	  0.207
26861	  0.649	  0.401	  0.619	  0.116	 -0.127	 -9.745	 -0.008	 -0.007	 -0.014	 32.700	 99.108	 -0.427
26911	  0.642	  0.413	  0.615	  0.076	 -0.043	 -9.758	 -0.002	  0.004	 -0.011	 32.700	 99.108	 -0.427
26961	  0.599	  0.449	  0.608	 -0.016	  0.057	 -9.719	  0.005	  0.029	 -0.001	 32.700	 99.108	 -0.427
27011	  0.598	  0.457	  0.602	  0.112	 -0.022	 -9.759	 -0.007	 -0.006	 -0.000	 32.700	 99.093	  0.933
27061	  0.595	  0.459	  0.609	  0.087	 -0.038	 -9.847	 -0.001	  0.064	 -0.024	 32.700	 99.097	  0.570
27111	  0.596	  0.461	  0.601	  0.227	  0.074	 -9.595	 -0.014	 -0.078	 -0.074	 32.700	 99.112	 -0.790
27161	  0.594	  0.461	  0.608	 -0.275	 -0.138	 -9.790	 -0.003	 -0.004	 -0.094	 32.700	 99.097	  0.570
27211	  0.594	  0.464	  0.596	  0.001	  0.010	 -9.760	 -0.001	  0.019	  0.114	 32.700	 99.108	 -0.427
27261	  0.597	  0.458	  0.604	 -0.597	 -0.011	 -9.921	 -0.054	 -0.070	  0.426	 32.700	 99.101	  0.207
27311	  0.605	  0.440	  0.597	  0.840	 -0.348	 -9.661	 -0.011	 -0.003	  0.172	 32.700	 99.097	  0.570
27361	  0.603	  0.445	  0.599	 -0.551	  0.131	 -11.049	  0.077	  0.136	 -0.276	 32.700	 99.097	  0.570
27411	  0.600	  0.452	  0.606	  0.135	  0.106	 -9.726	 -0.002	 -0.001	 -0.137	 32.700	 99.108	 -0.427
27461	  0.596	  0.456	  0.603	  0.188	  0.178	 -9.695	  0.002	  0.003	 -0.183	 32.700	 99.108	 -0.427
27511	  0.597	  0.457	  0.602	  0.007	 -0.131	 -9.766	 -0.003	  0.006	 -0.005	 32.700	 99.097	  0.570
27561	  0.594	  0.464	  0.596	 -0.413	  0.464	 -9.791	  0.005	  0.015	 -0.160	 32.700	 99.112	 -0.790
27611	  0.593	  0.461	  0.603	  0.030	 -0.073	 -9.760	  0.004	  0.008	 -0.122	 32.700	 99.108	 -0.427
27661	  0.587	  0.477	  0.599	  0.094	 -0.180	 -9.796	 -0.001	  0.003	 -0.554	 32.700	 99.108	 -0.427
27711	  0.580	  0.490	  0.607	 -0.007	  0.033	 -9.753	 -0.000	  0.003	 -0.294	 32.700	 99.108	 -0.427
27761	  0.575	  0.491	  0.604	 -0.028	  0.121	 -9.719	  0.005	  0.008	  0.006	 32.700	 99.112	 -0.790
27811	  0.578	  0.492	  0.609	  0.050	 -0.060	 -9.763	 -0.013	 -0.011	  0.073	 32.700	 99.108	 -0.427
27861	  0.578	  0.489	  0.604	  0.039	  0.014	 -9.759	 -0.004	  0.001	 -0.000	 32.700	 99.108	 -0.427
27911	  0.580	  0.490	  0.604	  0.317	 -0.080	 -9.753	 -0.001	  0.010	 -0.071	 32.700	 99.097	  0.570
27961	  0.575	  0.499	  0.608	 -0.159	 -0.061	 -9.772	  0.003	  0.005	 -0.361	 32.700	 99.097	  0.570
28011	  0.566	  0.511	  0.609	  0.163	 -0.011	 -9.777	 -0.005	  0.003	 -0.281	 32.700	 99.101	  0.207
28061	  0.561	  0.517	  0.608	 -3.040	  3.824	 -9.782	  0.014	  0.002	  0.051	 32.700	 99.097	  0.570
28111	  0.627	  0.418	  0.595	  0.255	  2.034	 -9.665	 -0.071	 -0.047	  4.514	 32.700	 99.101	  0.207
28161	  0.679	  0.309	  0.583	  1.680	 -5.494	 -9.580	  1.183	 -0.034	  1.313	 32.700	 99.108	 -0.427
28211	  0.690	  0.311	  0.580	 -0.860	 -2.411	 -10.131	 -0.965	 -0.083	 -0.189	 32.700	 99.108	 -0.427
28261	  0.686	  0.289	  0.596	 -2.481	  2.854	 -13.979	  0.187	  0.018	 -0.512	 32.700	 99.112	 -0.790
28311	  0.682	  0.294	  0.594	  0.233	 -0.049	 -9.786	 -0.005	  0.007	  0.204	 32.700	 99.108	 -0.427
28361	  0.680	  0.285	  0.598	  0.055	 -0.012	 -9.768	 -0.005	  0.004	 -0.007	 32.700	 99.101	  0.207
28411	  0.680	  0.294	  0.594	  0.067	  0.008	 -9.774	  0.004	  0.016	 -0.107	 32.700	 99.101	  0.207
28461	  0.678	  0.296	  0.598	  0.087	  0.110	 -9.719	  0.001	  0.010	 -0.173	 32.700	 99.101	  0.207
28511	  0.679	  0.300	  0.601	  0.078	 -0.000	 -9.770	 -0.003	  0.003	 -0.000	 32.700	 99.101	  0.207
28561	  0.678	  0.296	  0.598	  0.065	  0.002	 -9.766	 -0.002	  0.003	  0.000	 32.700	 99.097	  0.570
28611	  0.679	  0.296	  0.599	  0.098	  0.010	 -9.741	 -0.003	  0.003	 -0.000	 32.700	 99.097	  0.570
28661	  0.678	  0.295	  0.598	  0.054	 -0.001	 -9.775	 -0.005	  0.001	  0.001	 32.700	 99.108	 -0.427
28711	  0.678	  0.295	  0.600	  0.075	  0.015	 -9.748	 -0.003	  0.001	  0.001	 32.700	 99.097	  0.570
28761	  0.680	  0.302	  0.596	  0.067	  0.007	 -9.766	 -0.003	  0.004	 -0.000	 32.700	 99.101	  0.207
28811	  0.679	  0.300	  0.600	  0.088	  0.011	 -9.792	 -0.003	  0.002	  0.001	 32.700	 99.097	  0.570
28861	  0.680	  0.299	  0.595	  0.068	 -0.019	 -9.764	 -0.004	  0.003	  0.001	 32.700	 99.097	  0.570
28911	  0.678	  0.296	  0.599	  0.007	  0.173	 -9.712	  0.013	  0.009	  0.015	 32.700	 99.112	 -0.790
28961	  0.682	  0.282	  0.597	  0.154	 -0.045	 -9.727	  0.073	  0.039	  0.792	 32.700	 99.101	  0.207
29011	  0.688	  0.261	  0.593	  0.199	 -0.352	 -9.668	  0.228	  0.025	  0.405	 32.700	 99.108	 -0.427
29061	  0.693	  0.257	  0.589	  0.000	  0.342	 -9.746	  0.234	  0.055	  0.456	 32.700	 99.101	  0.207
29111	  0.699	  0.236	  0.588	  0.283	 -0.640	 -10.260	  0.320	  0.055	  0.605	 32.700	 99.097	  0.570
29161	  0.713	  0.226	  0.577	 -0.367	 -1.017	 -9.908	  0.604	 -0.156	  0.822	 32.700	 99.097	  0.570
29211	  0.731	  0.210	  0.564	  0.594	 -2.700	 -9.264	  0.691	 -0.551	  0.661	 32.700	 99.112	 -0.790
29261	  0.760	  0.207	  0.540	 -0.655	 -0.433	 -10.086	  0.117	 -0.554	  0.702	 32.700	 99.101	  0.207
29311	  0.767	  0.193	  0.526	 -1.251	 -2.120	 -9.773	 -0.461	 -0.139	 -0.046	 32.700	 99.097	  0.570
29361	  0.763	  0.164	  0.534	 -0.130	 -1.028	 -9.207	 -0.125	  0.372	  1.154	 32.700	 99.097	  0.570
29411	  0.778	  0.127	  0.527	 -0.226	 -0.156	 -9.722	  0.006	 -0.625	  0.157	 32.700	 99.112	 -0.790
29461	  0.796	  0.137	  0.530	 -1.067	 -1.373	 -9.411	  0.195	 -0.127	  0.267	 32.700	 99.108	 -0.427
29511	  0.818	  0.155	  0.522	 -0.574	 -0.845	 -9.221	  1.595	 -0.207	  0.849	 32.700	 99.097	  0.570
29561	  0.836	  0.205	  0.522	 -0.970	 -4.474	 -9.112	  2.303	  0.223	 -0.041	 32.700	 99.101	  0.207
29611	  0.831	  0.269	  0.557	 -1.004	 -1.746	 -9.174	  0.728	  0.535	 -0.173	 32.700	 99.101	  0.207
29660	  0.837	  0.286	  0.574	 -0.925	 -2.864	 -9.210	  0.086	 -0.393	  0.303	 32.700	 99.108	 -0.427
29719	  0.869	  0.276	  0.552	 -0.755	 -2.098	 -9.572	 -0.525	 -0.798	  0.513	 32.700	 99.097	  0.570
29761	  0.885	  0.241	  0.556	 -1.480	 -2.688	 -9.934	 -0.064	  0.737	  0.499	 32.700	 99.097	  0.570
29810	  0.864	  0.238	  0.592	 -0.477	 -3.260	 -9.220	  0.708	  0.685	  0.825	 32.700	 99.108	 -0.427
29861	  0.869	  0.252	  0.596	 -0.630	 -3.320	 -9.274	  0.900	 -0.100	  0.618	 32.700	 99.108	 -0.427
29910	  0.896	  0.279	  0.599	 -0.539	 -4.230	 -10.299	  0.547	 -0.327	  0.291	 32.700	 99.108	 -0.427
29960	  0.892	  0.320	  0.618	 -1.052	 -4.211	 -9.924	 -0.224	  0.420	  0.069	 32.700	 99.101	  0.207
30010	  0.841	  0.364	  0.671	 -1.227	 -3.093	 -8.772	 -0.701	  0.520	  0.087	 32.700	 99.101	  0.207
30060	  0.792	  0.382	  0.696	 -1.993	 -2.161	 -9.470	 -0.593	  0.410	  0.215	 32.700	 99.097	  0.570
30110	  0.749	  0.371	  0.732	  0.260	 -3.181	 -8.732	 -0.875	  0.903	  0.384	 32.700	 99.085	  1.659
30160	  0.689	  0.372	  0.778	 -0.545	 -1.829	 -7.847	 -0.930	  0.784	  0.208	 32.700	 99.097	  0.570
30210	  0.669	  0.385	  0.810	 -0.457	 -0.693	 -8.911	 -0.219	  0.081	  0.203	 32.700	 99.097	  0.570
30260	  0.694	  0.411	  0.825	 -0.450	 -1.181	 -10.780	 -0.061	 -0.067	  0.445	 32.700	 99.101	  0.207
30310	  0.693	  0.399	  0.839	 -0.033	 -1.824	 -11.108	 -0.503	  0.238	  0.556	 32.700	 99.112	 -0.790
30360	  0.677	  0.365	  0.848	  0.684	 -1.478	 -11.769	 -0.871	  0.136	  0.236	 32.700	 99.101	  0.207
30411	  0.648	  0.303	  0.834	  0.786	 -1.943	 -10.653	 -1.220	 -0.188	  0.250	 32.700	 99.097	  0.570
30461	  0.617	  0.225	  0.817	 -0.305	 -0.393	 -9.906	 -1.157	 -0.139	  0.271	 32.700	 99.101	  0.207
30511	  0.576	  0.182	  0.795	 -0.456	 -0.036	 -8.418	 -0.679	  0.086	  0.124	 32.700	 99.090	  1.205
30561	  0.553	  0.158	  0.772	 -0.286	  0.161	 -9.386	 -0.414	 -0.158	  0.290	 32.700	 99.101	  0.207
30611	  0.539	  0.134	  0.754	 -0.433	  0.763	 -9.668	 -0.557	 -0.369	  0.044	 32.700	 99.093	  0.933
30661	  0.526	  0.112	  0.733	 -1.061	  1.159	 -10.247	 -0.807	 -0.292	  0.006	 32.700	 99.097	  0.570
30711	  0.511	  0.073	  0.704	 -1.087	  1.640	 -9.848	 -0.819	 -0.262	  0.029	 32.700	 99.097	  0.570
30761	  0.503	  0.040	  0.678	 -0.467	  1.990	 -9.416	 -0.606	 -0.374	  0.049	 32.700	 99.112	 -0.790
30811	  0.497	  0.015	  0.647	 -0.611	  2.281	 -9.299	 -0.619	 -0.312	 -0.143	 32.700	 99.112	 -0.790
30861	  0.491	 -0.000	  0.622	 -1.645	  2.775	 -8.110	 -0.207	 -0.203	 -0.170	 32.700	 99.101	  0.207
30911	  0.487	  0.002	  0.618	 -0.965	  2.829	 -9.141	  0.246	 -0.036	 -0.245	 32.700	 99.108	 -0.427
30961	  0.486	  0.011	  0.604	 -1.643	  2.794	 -9.209	  0.391	 -0.138	 -0.090	 32.700	 99.101	  0.207
31011	  0.486	  0.016	  0.599	 -1.035	  2.399	 -9.585	  0.313	  0.046	 -0.222	 32.700	 99.112	 -0.790
31061	  0.482	  0.016	  0.596	 -1.155	  2.276	 -9.610	  0.089	 -0.092	 -0.308	 32.700	 99.112	 -0.790
31111	  0.485	  0.012	  0.589	 -1.535	  2.212	 -9.843	 -0.041	 -0.121	 -0.496	 32.700	 99.101	  0.207
31161	  0.488	  0.003	  0.577	 -2.025	  2.079	 -10.184	  0.027	 -0.210	 -0.534	 32.700	 99.097	  0.570
31211	  0.489	 -0.005	  0.561	 -2.009	  1.997	 -10.105	 -0.174	 -0.212	 -0.444	 32.700	 99.112	 -0.790
31261	  0.486	 -0.020	  0.535	 -1.959	  1.986	 -10.120	 -0.283	 -0.100	 -0.355	 32.700	 99.101	  0.207
31311	  0.479	 -0.033	  0.513	 -2.170	  2.521	 -10.503	 -0.196	 -0.019	 -0.428	 32.700	 99.097	  0.570
31361	  0.465	 -0.045	  0.487	 -1.729	  2.610	 -10.301	 -0.178	 -0.020	 -0.462	 32.700	 99.108	 -0.427
31411	  0.454	 -0.051	  0.457	 -1.298	  2.123	 -10.093	 -0.077	 -0.102	 -0.583	 32.700	 99.101	  0.207
31461	  0.441	 -0.048	  0.436	 -1.594	  1.009	 -10.171	 -0.284	  0.124	 -0.810	 32.700	 99.097	  0.570
31511	  0.418	 -0.043	  0.416	 -1.956	  1.635	 -9.331	 -0.551	  0.694	 -0.727	 32.700	 99.101	  0.207
31561	  0.393	 -0.037	  0.410	 -1.781	  1.164	 -8.029	 -0.369	  0.459	 -0.660	 32.700	 99.112	 -0.790
31611	  0.380	 -0.026	  0.402	 -1.385	  1.308	 -8.181	  0.088	  0.282	 -0.415	 32.700	 99.112	 -0.790
31661	  0.371	 -0.008	  0.401	 -1.550	  1.220	 -8.584	  0.194	  0.236	 -0.205	 32.700	 99.097	  0.570
31711	  0.360	  0.009	  0.397	 -1.544	  1.179	 -9.718	  0.417	  0.510	 -0.012	 32.700	 99.097	  0.570
31761	  0.349	  0.037	  0.402	 -1.330	  1.422	 -9.632	  0.324	  0.560	  0.276	 32.700	 99.101	  0.207
31811	  0.341	  0.057	  0.399	 -0.940	  1.406	 -9.241	  0.180	  0.292	  0.065	 32.700	 99.097	  0.570
31861	  0.331	  0.052	  0.398	 -0.809	  1.598	 -9.357	  0.229	  0.125	 -0.032	 32.700	 99.101	  0.207
31911	  0.324	  0.054	  0.387	 -0.706	  1.719	 -9.582	  0.294	 -0.057	 -0.029	 32.700	 99.097	  0.570
31961	  0.322	  0.041	  0.383	 -0.747	  0.966	 -8.895	  0.295	 -0.179	 -0.075	 32.700	 99.112	 -0.790
32011	  0.320	  0.032	  0.374	 -1.133	  0.991	 -7.274	 -0.022	 -0.433	 -0.058	 32.700	 99.097	  0.570
32061	  0.334	  0.033	  0.374	 -1.298	  0.666	 -6.993	  0.243	 -0.385	 -0.091	 32.700	 99.097	  0.570
32111	  0.340	  0.033	  0.371	 -1.558	  0.658	 -8.818	  0.351	 -0.283	  0.245	 32.700	 99.101	  0.207
32161	  0.340	  0.028	  0.368	 -1.573	  0.354	 -9.890	 -0.144	  0.340	  0.377	 32.700	 99.090	  1.205
32211	  0.337	  0.015	  0.382	 -0.554	  0.353	 -7.192	 -0.268	  0.089	  0.301	 32.700	 99.101	  0.207
32261	  0.351	  0.020	  0.385	 -0.670	  1.196	 -7.846	  0.282	 -0.429	  0.116	 32.700	 99.112	 -0.790
32311	  0.365	  0.024	  0.394	 -1.433	  1.836	 -7.767	  0.724	 -0.537	  0.300	 32.700	 99.097	  0.570
32361	  0.387	  0.044	  0.405	 -1.695	  1.568	 -10.522	  0.796	 -0.028	  0.483	 32.700	 99.112	 -0.790
32411	  0.394	  0.049	  0.419	 -1.918	  1.172	 -10.917	  0.207	  0.427	  0.582	 32.700	 99.097	  0.570
32461	  0.394	  0.042	  0.448	 -0.919	  0.724	 -10.299	 -0.098	  0.487	  0.425	 32.700	 99.097	  0.570
32511	  0.394	  0.033	  0.479	 -0.844	  0.822	 -10.565	  0.100	  0.524	  0.149	 32.700	 99.101	  0.207
32561	  0.390	  0.026	  0.505	 -0.645	  1.006	 -10.365	 -0.246	  0.235	  0.227	 32.700	 99.112	 -0.790
32611	  0.401	  0.016	  0.522	 -0.272	  1.511	 -9.488	 -0.181	 -0.078	  0.145	 32.700	 99.097	  0.570
32661	  0.413	 -0.013	  0.543	  0.232	  1.498	 -10.241	 -0.160	  0.121	  0.130	 32.700	 99.101	  0.207
32711	  0.411	 -0.032	  0.568	  0.671	  1.497	 -10.895	 -0.823	  0.695	 -0.002	 32.700	 99.101	  0.207
32761	  0.384	 -0.078	  0.603	  1.504	  0.899	 -9.845	 -0.841	  1.239	 -0.438	 32.700	 99.097	  0.570
32811	  0.332	 -0.127	  0.630	  0.049	  1.390	 -9.580	 -0.913	  1.784	 -1.016	 32.700	 99.085	  1.659
32861	  0.277	 -0.166	  0.666	  0.754	  1.923	 -8.174	 -0.110	  1.374	 -0.851	 32.700	 99.101	  0.207
32911	  0.249	 -0.182	  0.697	  1.662	  2.083	 -8.547	  0.804	  0.506	 -0.846	 32.700	 99.097	  0.570
32961	  0.247	 -0.174	  0.729	  2.373	  1.280	 -11.165	  0.961	  0.157	 -0.930	 32.700	 99.108	 -0.427
33011	  0.245	 -0.172	  0.747	  2.284	  1.673	 -10.270	  0.339	  0.007	 -0.638	 32.700	 99.101	  0.207
33061	  0.245	 -0.186	  0.749	  2.767	  0.665	 -10.658	  0.468	 -0.066	 -0.848	 32.700	 99.112	 -0.790
33111	  0.242	 -0.177	  0.748	  0.952	  1.920	 -13.406	  0.286	 -0.349	 -0.991	 32.700	 99.101	  0.207
33161	  0.233	 -0.156	  0.730	  1.549	  0.816	 -10.470	  0.076	 -0.011	 -1.034	 32.700	 99.101	  0.207
33211	  0.217	 -0.144	  0.709	  1.508	  1.341	 -10.365	 -0.196	  0.304	 -1.008	 32.700	 99.108	 -0.427
33261	  0.192	 -0.133	  0.688	  1.859	  1.108	 -9.137	 -0.022	  0.213	 -1.041	 32.700	 99.097	  0.570
33311	  0.178	 -0.112	  0.676	  1.809	  0.984	 -9.061	  0.227	 -0.316	 -1.015	 32.700	 99.112	 -0.790
33361	  0.176	 -0.091	  0.658	  1.210	  0.814	 -10.319	  0.146	 -0.322	 -0.977	 32.700	 99.112	 -0.790
33411	  0.164	 -0.084	  0.638	  0.728	  1.233	 -10.382	  0.028	 -0.217	 -0.877	 32.700	 99.097	  0.570
33461	  0.157	 -0.082	  0.619	  1.281	  0.324	 -10.453	 -0.083	 -0.163	 -0.886	 32.700	 99.112	 -0.790
33511	  0.153	 -0.074	  0.583	  0.583	 -0.502	 -10.121	 -0.041	 -0.350	 -0.820	 32.700	 99.112	 -0.790
33561	  0.162	 -0.060	  0.563	 -0.110	 -0.918	 -10.209	 -0.247	 -0.365	 -0.687	 32.700	 99.112	 -0.790
33611	  0.162	 -0.056	  0.536	 -0.725	 -0.552	 -9.709	 -0.481	 -0.196	 -0.626	 32.700	 99.112	 -0.790
33661	  0.156	 -0.050	  0.525	 -0.764	 -0.161	 -9.920	 -0.306	 -0.136	 -0.213	 32.700	 99.097	  0.570
33711	  0.156	 -0.044	  0.509	 -0.984	 -0.064	 -9.738	 -0.272	 -0.255	 -0.090	 32.700	 99.108	 -0.427
33761	  0.162	 -0.037	  0.503	 -0.821	  0.200	 -9.177	 -0.095	 -0.346	  0.261	 32.700	 99.112	 -0.790
33811	  0.172	 -0.028	  0.497	 -1.049	  0.454	 -9.662	  0.224	 -0.616	  0.544	 32.700	 99.101	  0.207
33861	  0.191	 -0.014	  0.493	 -1.325	 -0.047	 -9.661	  0.159	 -0.645	  0.750	 32.700	 99.101	  0.207
33911	  0.212	 -0.003	  0.495	 -1.396	  0.194	 -9.678	  0.168	 -0.670	  0.973	 32.700	 99.097	  0.570
33961	  0.232	 -0.002	  0.487	 -1.316	  0.247	 -9.151	  0.128	 -0.479	  1.243	 32.700	 99.097	  0.570
34011	  0.252	 -0.002	  0.489	 -1.069	  0.447	 -9.130	  0.354	 -0.552	  1.451	 32.700	 99.108	 -0.427
34061	  0.277	  0.009	  0.481	 -1.097	  0.590	 -9.108	  0.466	 -0.769	  1.648	 32.700	 99.108	 -0.427
34111	  0.301	  0.016	  0.480	 -0.684	  0.671	 -9.310	  0.266	 -0.480	  1.745	 32.700	 99.112	 -0.790
34161	  0.323	  0.014	  0.475	 -1.240	  0.639	 -9.465	  0.348	 -0.554	  1.855	 32.700	 99.101	  0.207
34211	  0.340	  0.006	  0.464	 -1.026	  0.575	 -10.052	  0.041	 -0.294	  2.014	 32.700	 99.101	  0.207
34261	  0.353	 -0.006	  0.443	 -0.815	  0.659	 -9.045	 -0.277	 -0.317	  1.928	 32.700	 99.101	  0.207
34311	  0.364	 -0.021	  0.424	 -1.199	  0.928	 -8.816	 -0.198	 -0.326	  1.885	 32.700	 99.101	  0.207
34361	  0.369	 -0.043	  0.393	 -0.982	  1.464	 -8.412	 -0.165	 -0.408	  1.871	 32.700	 99.101	  0.207
34411	  0.374	 -0.061	  0.365	 -1.110	  1.610	 -8.337	  0.298	 -0.535	  1.816	 32.700	 99.097	  0.570
34461	  0.377	 -0.074	  0.342	 -1.322	  2.053	 -8.958	  0.390	 -0.369	  1.778	 32.700	 99.101	  0.207
34511	  0.375	 -0.086	  0.309	 -1.130	  2.270	 -8.520	  0.357	 -0.585	  1.785	 32.700	 99.101	  0.207
34561	  0.372	 -0.109	  0.282	 -0.570	  2.391	 -8.186	  0.345	 -0.690	  1.797	 32.700	 99.112	 -0.790
34611	  0.372	 -0.122	  0.251	 -0.481	  2.570	 -8.962	  0.429	 -0.773	  1.438	 32.700	 99.101	  0.207
34661	  0.366	 -0.143	  0.229	 -1.456	  2.752	 -9.534	  0.467	 -0.602	  1.179	 32.700	 99.101	  0.207
34711	  0.354	 -0.158	  0.211	 -1.332	  2.588	 -10.518	  0.238	 -0.090	  1.106	 32.700	 99.101	  0.207
34761	  0.336	 -0.178	  0.202	 -1.508	  2.094	 -11.167	  0.054	  0.182	  0.942	 32.700	 99.112	 -0.790
34811	  0.312	 -0.200	  0.194	 -0.627	  2.537	 -11.017	 -0.038	  0.331	  0.970	 32.700	 99.101	  0.207
34861	  0.289	 -0.215	  0.193	 -0.487	  1.951	 -11.897	  0.146	  0.294	  0.874	 32.700	 99.108	 -0.427
34911	  0.268	 -0.221	  0.203	 -0.036	  1.404	 -11.721	  0.506	 -0.052	  0.966	 32.700	 99.097	  0.570
34961	  0.248	 -0.226	  0.200	 -0.491	  1.550	 -12.613	  0.358	 -0.186	  0.963	 32.700	 99.112	 -0.790
35011	  0.233	 -0.227	  0.210	 -0.998	  0.857	 -12.797	  0.217	  0.279	  0.799	 32.700	 99.112	 -0.790
35061	  0.207	 -0.227	  0.215	 -0.988	  1.901	 -12.124	  0.282	  0.761	  0.863	 32.700	 99.101	  0.207
35111	  0.182	 -0.231	  0.229	  0.581	  1.575	 -10.654	  0.409	  0.649	  1.063	 32.700	 99.101	  0.207
35161	  0.160	 -0.221	  0.238	  0.738	  1.252	 -10.032	  0.555	  0.318	  0.585	 32.700	 99.101	  0.207
35211	  0.145	 -0.211	  0.253	  0.065	  1.444	 -10.080	  0.577	  0.492	  0.428	 32.700	 99.101	  0.207
35261	  0.130	 -0.208	  0.261	 -0.263	  1.668	 -9.022	  0.463	  0.405	  0.474	 32.700	 99.112	 -0.790
35311	  0.114	 -0.203	  0.269	  0.316	  1.572	 -8.925	  0.354	  0.639	  0.388	 32.700	 99.101	  0.207
35361	  0.092	 -0.187	  0.275	  0.801	  1.351	 -7.727	  0.485	  0.471	  0.256	 32.700	 99.090	  1.205
35411	  0.077	 -0.181	  0.281	  0.637	  1.123	 -8.417	  0.448	  0.580	  0.147	 32.700	 99.112	 -0.790
35461	  0.061	 -0.181	  0.288	  0.552	  1.636	 -8.568	  0.382	  0.358	  0.293	 32.700	 99.097	  0.570
35512	  0.058	 -0.164	  0.293	  0.622	  1.896	 -8.691	  0.294	  0.301	  0.354	 32.700	 99.090	  1.205
35561	  0.050	 -0.165	  0.298	  2.156	  1.701	 -7.936	  0.169	  0.374	  0.607	 32.700	 99.112	 -0.790
35611	  0.046	 -0.155	  0.300	  1.251	  0.899	 -8.076	  0.499	 -0.223	  0.092	 32.700	 99.101	  0.207
35661	  0.052	 -0.150	  0.308	  1.567	  1.749	 -9.391	  0.188	 -0.232	  0.418	 32.700	 99.090	  1.205
35711	  0.049	 -0.147	  0.306	  1.126	  0.415	 -9.097	  0.082	  0.044	 -0.138	 32.700	 99.097	  0.570
35761	  0.051	 -0.141	  0.309	  0.774	  1.143	 -9.689	 -0.144	 -0.100	 -0.018	 32.700	 99.090	  1.205
35811	  0.053	 -0.146	  0.305	  0.718	  1.257	 -8.701	 -0.468	 -0.229	  0.082	 32.700	 99.101	  0.207
35861	  0.058	 -0.157	  0.301	  0.905	  1.467	 -8.431	 -0.196	 -0.604	 -0.015	 32.700	 99.097	  0.570
35911	  0.075	 -0.158	  0.300	  0.433	  1.055	 -9.460	  0.159	 -0.868	 -0.164	 32.700	 99.101	  0.207
35962	  0.089	 -0.144	  0.299	  0.247	  0.719	 -10.726	  0.294	 -0.462	 -0.143	 32.700	 99.101	  0.207
36011	  0.098	 -0.144	  0.298	  0.804	 -0.485	 -9.588	  0.118	 -0.399	 -0.449	 32.700	 99.101	  0.207
36062	  0.106	 -0.134	  0.298	  0.903	  0.018	 -10.820	  0.352	 -0.304	 -0.576	 32.700	 99.097	  0.570
36112	  0.108	 -0.123	  0.301	  1.076	 -0.206	 -11.392	 -0.003	  0.055	 -0.520	 32.700	 99.101	  0.207
36162	  0.103	 -0.126	  0.297	  2.767	 -0.767	 -11.137	 -0.152	  0.336	 -0.450	 32.700	 99.097	  0.570
36212	  0.103	 -0.124	  0.302	  2.870	 -0.609	 -9.159	 -0.079	  0.077	 -0.816	 32.700	 99.090	  1.205
36262	  0.110	 -0.115	  0.299	  2.103	 -0.363	 -8.981	  0.271	 -0.271	 -1.255	 32.700	 99.101	  0.207
36312	  0.121	 -0.105	  0.304	  1.103	  0.085	 -9.311	  0.033	 -0.457	 -1.306	 32.700	 99.101	  0.207
36362	  0.133	 -0.102	  0.295	  1.285	 -0.113	 -8.487	 -0.432	 -0.305	 -1.476	 32.700	 99.101	  0.207
36412	  0.143	 -0.105	  0.286	  0.842	  0.451	 -7.647	 -0.779	 -0.098	 -1.630	 32.700	 99.101	  0.207
36462	  0.150	 -0.102	  0.291	  1.036	  0.672	 -8.585	  0.077	 -0.075	 -1.607	 32.700	 99.101	  0.207
36512	  0.157	 -0.081	  0.292	  1.277	  0.327	 -10.232	  0.289	 -0.047	 -1.603	 32.700	 99.101	  0.207
36562	  0.160	 -0.067	  0.291	  0.814	 -0.020	 -9.837	  0.068	  0.025	 -1.777	 32.700	 99.101	  0.207
36612	  0.162	 -0.061	  0.283	  1.055	  0.490	 -10.432	 -0.342	  0.312	 -1.815	 32.700	 99.090	  1.205
36662	  0.160	 -0.054	  0.291	  2.153	  0.135	 -10.080	 -0.186	  0.087	 -1.700	 32.700	 99.097	  0.570
36712	  0.167	 -0.040	  0.288	  2.518	 -0.012	 -10.312	  0.025	 -0.430	 -1.772	 32.700	 99.101	  0.207
36762	  0.179	 -0.022	  0.287	  2.047	  0.038	 -10.739	  0.085	 -0.533	 -2.139	 32.700	 99.090	  1.205
36812	  0.184	 -0.005	  0.279	  1.229	  0.753	 -10.910	  0.001	 -0.115	 -2.200	 32.700	 99.112	 -0.790
36862	  0.178	  0.017	  0.282	  1.569	  0.217	 -10.570	  0.205	  0.216	 -1.877	 32.700	 99.097	  0.570
36912	  0.172	  0.031	  0.285	  1.431	  0.247	 -9.768	 -0.013	  0.303	 -1.833	 32.700	 99.108	 -0.427
36961	  0.159	  0.043	  0.290	  0.965	  0.252	 -8.728	 -0.133	  0.431	 -1.856	 32.700	 99.112	 -0.790
37011	  0.149	  0.054	  0.287	  0.204	  0.641	 -8.568	  0.023	  0.366	 -1.624	 32.700	 99.097	  0.570
37061	  0.133	  0.063	  0.289	  0.216	  0.639	 -9.394	  0.095	  0.335	 -1.435	 32.700	 99.097	  0.570
37111	  0.123	  0.072	  0.293	 -0.002	  0.968	 -9.197	  0.249	  0.354	 -1.042	 32.700	 99.101	  0.207
37161	  0.111	  0.083	  0.292	  0.366	  0.749	 -9.680	  0.121	  0.041	 -0.831	 32.700	 99.101	  0.207
37211	  0.107	  0.091	  0.297	  0.018	  0.598	 -9.300	  0.077	  0.099	 -0.670	 32.700	 99.085	  1.659
37261	  0.095	  0.094	  0.293	 -0.671	  0.974	 -10.036	  0.120	  0.324	 -0.614	 32.700	 99.101	  0.207
37311	  0.088	  0.096	  0.295	  0.074	  0.958	 -9.857	  0.139	  0.193	 -0.370	 32.700	 99.097	  0.570
37361	  0.080	  0.101	  0.293	  0.593	  0.843	 -10.277	  0.139	  0.021	 -0.493	 32.700	 99.090	  1.205
37411	  0.078	  0.103	  0.292	  0.734	  0.572	 -9.189	 -0.039	 -0.435	 -0.576	 32.700	 99.101	  0.207
37461	  0.079	  0.105	  0.292	  0.111	  1.152	 -10.081	  0.179	 -0.691	 -0.599	 32.700	 99.097	  0.570
37511	  0.088	  0.120	  0.290	  0.058	  0.719	 -10.864	  0.381	 -0.577	 -0.290	 32.700	 99.097	  0.570
37561	  0.093	  0.120	  0.291	  0.482	 -0.235	 -11.724	  0.141	 -0.258	 -0.344	 32.700	 99.090	  1.205
37611	  0.088	  0.120	  0.295	  0.675	  0.348	 -11.615	 -0.177	  0.178	 -0.494	 32.700	 99.101	  0.207
37661	  0.080	  0.112	  0.298	  1.467	  0.100	 -10.822	 -0.348	  0.137	 -0.519	 32.700	 99.101	  0.207
37711	  0.069	  0.111	  0.302	  1.827	  0.474	 -9.905	 -0.417	  0.141	 -0.673	 32.700	 99.112	 -0.790
37761	  0.063	  0.101	  0.307	  0.999	  0.609	 -9.219	 -0.327	  0.074	 -0.838	 32.700	 99.112	 -0.790
37811	  0.056	  0.098	  0.309	  0.855	  0.323	 -8.988	 -0.319	  0.270	 -0.685	 32.700	 99.101	  0.207
37861	  0.043	  0.089	  0.309	  0.731	  0.695	 -8.789	 -0.386	  0.335	 -0.595	 32.700	 99.085	  1.659
37911	  0.034	  0.082	  0.314	  1.028	  0.664	 -8.406	 -0.185	  0.432	 -0.666	 32.700	 99.101	  0.207
37961	  0.020	  0.075	  0.312	  0.369	  0.760	 -9.149	 -0.132	  0.196	 -0.704	 32.700	 99.101	  0.207
38011	  0.009	  0.066	  0.317	  0.573	  0.622	 -9.278	 -0.101	  0.325	 -0.578	 32.700	 99.101	  0.207
38061	  0.005	  0.064	  0.317	 -0.134	  0.529	 -9.479	 -0.042	 -0.107	 -0.603	 32.700	 99.101	  0.207
38111	  0.000	  0.056	  0.318	 -0.043	  0.779	 -9.774	 -0.246	 -0.119	 -0.609	 32.700	 99.101	  0.207
38161	 -0.001	  0.048	  0.324	  0.437	  1.235	 -10.216	 -0.182	 -0.119	 -0.382	 32.700	 99.101	  0.207
38211	 -0.003	  0.046	  0.315	  1.462	  0.532	 -10.426	 -0.008	 -0.129	 -0.272	 32.700	 99.090	  1.205
38261	  0.001	  0.039	  0.323	  0.915	  0.732	 -10.831	 -0.218	 -0.450	 -0.833	 32.700	 99.101	  0.207
38311	 -0.002	  0.034	  0.316	  0.894	  1.876	 -10.950	 -0.087	  0.043	 -0.420	 32.700	 99.112	 -0.790
38361	 -0.008	  0.023	  0.322	  1.606	  1.299	 -9.846	 -0.153	  0.127	 -0.119	 32.700	 99.097	  0.570
38411	 -0.016	  0.023	  0.320	  2.102	  0.807	 -9.169	  0.201	  0.120	 -0.056	 32.700	 99.101	  0.207
38461	 -0.021	  0.035	  0.321	  2.057	  0.293	 -9.811	  0.284	  0.035	  0.104	 32.700	 99.101	  0.207
38511	 -0.025	  0.032	  0.326	  1.349	 -0.456	 -9.042	  0.007	 -0.023	 -0.027	 32.700	 99.101	  0.207
38561	 -0.034	  0.031	  0.326	  0.761	  0.804	 -9.056	 -0.274	  0.227	 -0.007	 32.700	 99.101	  0.207
38611	 -0.043	  0.035	  0.329	 -0.142	  1.536	 -8.241	 -0.004	  0.092	 -0.057	 32.700	 99.097	  0.570
38661	 -0.050	  0.037	  0.333	  0.383	  2.129	 -9.263	  0.148	  0.164	  0.157	 32.700	 99.097	  0.570
38711	 -0.060	  0.035	  0.335	 -0.183	  1.804	 -8.770	  0.001	  0.202	 -0.122	 32.700	 99.101	  0.207
38761	 -0.066	  0.039	  0.340	  0.596	  2.059	 -9.858	  0.047	  0.070	  0.235	 32.700	 99.090	  1.205
38811	 -0.071	  0.046	  0.345	  0.811	  1.333	 -9.727	 -0.031	 -0.188	  0.413	 32.700	 99.090	  1.205
38861	 -0.074	  0.053	  0.351	  0.895	  1.401	 -11.444	  0.065	 -0.087	  0.360	 32.700	 99.101	  0.207
38911	 -0.074	  0.064	  0.360	  2.411	  0.350	 -10.798	 -0.140	  0.054	  0.548	 32.700	 99.108	 -0.427
38961	 -0.073	  0.062	  0.371	  2.487	  0.006	 -9.790	 -0.233	 -0.146	  0.049	 32.700	 99.101	  0.207
39011	 -0.068	  0.068	  0.379	  1.653	  1.125	 -10.439	  0.179	 -0.191	 -0.360	 32.700	 99.097	  0.570
39061	 -0.065	  0.070	  0.385	  1.419	 -0.249	 -9.098	 -0.083	 -0.247	 -0.327	 32.700	 99.101	  0.207
39111	 -0.058	  0.072	  0.389	  1.363	  1.486	 -9.780	 -0.281	  0.154	 -0.429	 32.700	 99.101	  0.207
39161	 -0.060	  0.060	  0.394	  2.354	  2.039	 -7.545	 -0.524	  0.039	 -0.078	 32.700	 99.101	  0.207
39211	 -0.058	  0.045	  0.401	  2.230	  1.903	 -6.865	 -0.508	  0.047	 -0.750	 32.700	 99.101	  0.207
39261	 -0.056	  0.043	  0.403	 -0.413	  3.075	 -7.897	  0.278	 -0.360	 -0.944	 32.700	 99.090	  1.205
39311	 -0.048	  0.061	  0.404	  0.066	  2.142	 -11.679	  1.028	  0.094	 -0.121	 32.700	 99.112	 -0.790
39361	 -0.059	  0.082	  0.403	  1.562	 -0.780	 -10.754	  0.162	  0.547	 -0.206	 32.700	 99.097	  0.570
39411	 -0.073	  0.078	  0.403	  0.833	 -1.086	 -10.278	 -0.098	  0.627	 -1.007	 32.700	 99.097	  0.570
39461	 -0.084	  0.066	  0.404	 -0.837	 -0.349	 -10.172	 -0.508	  0.326	 -1.093	 32.700	 99.108	 -0.427
39511	 -0.093	  0.052	  0.403	 -0.560	 -0.644	 -9.453	 -0.563	  0.315	 -0.518	 32.700	 99.108	 -0.427
39561	 -0.090	  0.052	  0.405	 -0.144	 -0.885	 -9.600	 -0.279	 -0.083	 -0.373	 32.700	 99.097	  0.570
39611	 -0.086	  0.034	  0.413	 -0.265	 -0.000	 -10.027	 -0.803	 -0.201	 -0.236	 32.700	 99.097	  0.570
39661	 -0.078	  0.026	  0.411	 -1.370	  0.351	 -9.345	 -0.352	 -0.382	 -0.144	 32.700	 99.101	  0.207
39711	 -0.065	  0.028	  0.415	 -1.698	  1.842	 -10.311	  0.092	 -0.563	  0.532	 32.700	 99.097	  0.570
39761	 -0.048	  0.048	  0.417	  1.261	  1.860	 -10.042	  0.447	 -0.541	  1.653	 32.700	 99.090	  1.205
39811	 -0.019	  0.076	  0.417	  1.978	  0.146	 -9.950	  0.772	 -1.392	  1.569	 32.700	 99.101	  0.207
39861	  0.034	  0.109	  0.414	  1.751	  1.244	 -10.748	  0.552	 -1.467	  1.961	 32.700	 99.097	  0.570
39911	  0.081	  0.116	  0.406	  1.631	  0.549	 -10.725	  0.368	 -0.940	  1.890	 32.700	 99.090	  1.205
39961	  0.109	  0.119	  0.394	  1.289	  0.860	 -10.347	  0.385	 -0.320	  1.789	 32.700	 99.101	  0.207
40011	  0.127	  0.123	  0.384	  1.844	  0.574	 -9.645	  0.437	 -0.020	  1.591	 32.700	 99.085	  1.659
40061	  0.133	  0.126	  0.374	  1.101	  0.493	 -9.882	  0.459	  0.384	  1.169	 32.700	 99.097	  0.570
40111	  0.128	  0.117	  0.368	  0.118	  0.365	 -9.540	 -0.010	  0.670	  1.089	 32.700	 99.101	  0.207
40161	  0.116	  0.105	  0.367	 -0.294	  0.701	 -8.885	 -0.234	  0.818	  1.192	 32.700	 99.090	  1.205
40211	  0.105	  0.096	  0.359	 -0.192	  1.006	 -8.528	 -0.111	  0.637	  1.406	 32.700	 99.097	  0.570
40261	  0.103	  0.090	  0.366	  0.706	  0.702	 -8.842	  0.151	  0.369	  1.524	 32.700	 99.101	  0.207
40311	  0.106	  0.086	  0.362	  0.545	  0.677	 -9.181	  0.252	 -0.014	  1.465	 32.700	 99.085	  1.659
40361	  0.110	  0.087	  0.354	  0.232	  1.038	 -9.544	  0.411	 -0.122	  1.468	 32.700	 99.101	  0.207
40411	  0.117	  0.086	  0.351	  0.220	  0.758	 -10.290	  0.239	 -0.041	  1.535	 32.700	 99.090	  1.205
40461	  0.126	  0.083	  0.350	  1.040	  0.894	 -10.774	  0.093	 -0.040	  1.608	 32.700	 99.101	  0.207
40511	  0.133	  0.076	  0.350	  1.275	  0.579	 -11.080	 -0.164	 -0.015	  1.377	 32.700	 99.112	 -0.790
40561	  0.138	  0.063	  0.349	  1.918	 -0.027	 -11.013	 -0.186	  0.121	  1.328	 32.700	 99.101	  0.207
40611	  0.134	  0.049	  0.350	  2.272	 -0.750	 -9.994	 -0.181	  0.126	  1.102	 32.700	 99.097	  0.570
40661	  0.140	  0.044	  0.353	  1.606	 -0.724	 -9.679	  0.158	 -0.423	  0.615	 32.700	 99.101	  0.207
40711	  0.148	  0.041	  0.353	  1.171	 -0.654	 -9.492	  0.030	 -0.234	  0.366	 32.700	 99.101	  0.207
40761	  0.153	  0.037	  0.354	  0.233	 -0.442	 -9.228	 -0.110	 -0.097	  0.219	 32.700	 99.085	  1.659
40811	  0.148	  0.031	  0.359	  0.621	 -0.093	 -9.456	 -0.147	  0.085	  0.741	 32.700	 99.097	  0.570
40860	  0.148	  0.014	  0.361	  0.807	 -0.229	 -8.164	 -0.361	 -0.184	  0.383	 32.700	 99.101	  0.207
40910	  0.155	  0.005	  0.364	  0.125	  0.415	 -8.046	 -0.193	 -0.426	  0.248	 32.700	 99.108	 -0.427
40960	  0.160	  0.007	  0.364	 -0.107	  0.704	 -8.961	 -0.154	 -0.284	  0.095	 32.700	 99.097	  0.570
41010	  0.161	 -0.008	  0.359	 -0.655	  1.331	 -9.401	 -0.059	 -0.215	  0.032	 32.700	 99.112	 -0.790
41060	  0.159	 -0.008	  0.370	  0.188	  1.137	 -11.030	  0.108	  0.118	  0.088	 32.700	 99.097	  0.570
41110	  0.150	 -0.004	  0.371	 -0.057	  1.014	 -10.908	  0.254	  0.247	 -0.258	 32.700	 99.108	 -0.427
41160	  0.134	 -0.003	  0.379	  1.601	  1.537	 -11.195	 -0.077	  0.726	  0.146	 32.700	 99.108	 -0.427
41210	  0.118	 -0.010	  0.398	  2.878	  0.956	 -9.162	 -0.036	  0.328	 -0.474	 32.700	 99.101	  0.207
41262	  0.115	 -0.007	  0.397	  2.087	  1.341	 -9.145	  0.533	 -0.393	 -0.758	 32.700	 99.097	  0.570
41311	  0.119	  0.006	  0.410	  1.934	  1.514	 -9.771	  0.595	 -0.467	 -0.646	 32.700	 99.112	 -0.790
41361	  0.130	  0.014	  0.416	  1.265	  0.642	 -8.567	  0.533	 -0.600	 -0.741	 32.700	 99.097	  0.570
41411	  0.142	  0.024	  0.423	  0.996	  0.753	 -9.039	  0.425	 -0.524	 -0.755	 32.700	 99.097	  0.570
41460	  0.153	  0.025	  0.440	 -0.180	 -0.188	 -8.743	  0.087	 -0.708	 -0.998	 32.700	 99.097	  0.570
41510	  0.169	  0.010	  0.445	 -0.037	  0.650	 -9.942	 -0.429	 -0.385	 -0.651	 32.700	 99.101	  0.207
41560	  0.178	 -0.021	  0.465	  0.647	  0.505	 -9.353	 -0.550	 -0.138	 -0.396	 32.700	 99.097	  0.570
41610	  0.188	 -0.048	  0.482	  0.520	  0.431	 -9.356	 -0.268	 -0.376	 -0.426	 32.700	 99.097	  0.570
41661	  0.211	 -0.071	  0.500	 -0.053	  0.321	 -9.734	  0.043	 -0.440	 -0.211	 32.700	 99.108	 -0.427
41711	  0.222	 -0.105	  0.512	 -0.119	  0.691	 -9.741	  0.049	  0.144	  0.027	 32.700	 99.101	  0.207
41760	  0.232	 -0.121	  0.535	  0.786	 -1.743	 -8.806	  0.908	 -0.420	 -0.071	 32.700	 99.112	 -0.790
41811	  0.248	 -0.122	  0.558	 -0.129	 -1.565	 -9.569	  0.651	 -0.276	 -0.417	 32.700	 99.108	 -0.427
41860	  0.261	 -0.123	  0.575	 -0.340	 -1.431	 -11.088	  0.147	 -0.238	 -0.396	 32.700	 99.112	 -0.790
41911	  0.261	 -0.142	  0.588	  0.324	 -1.646	 -9.697	 -0.758	  0.248	 -0.275	 32.700	 99.097	  0.570
41961	  0.257	 -0.188	  0.585	  1.294	  0.635	 -9.169	 -0.571	  0.180	 -0.342	 32.700	 99.097	  0.570
42011	  0.255	 -0.199	  0.584	  1.122	 -0.909	 -9.526	 -0.020	 -0.088	 -0.660	 32.700	 99.085	  1.659
42061	  0.260	 -0.188	  0.584	  0.003	 -0.433	 -9.472	  0.164	  0.038	 -0.742	 32.700	 99.101	  0.207
42111	  0.264	 -0.174	  0.579	  0.318	 -0.333	 -9.939	  0.271	  0.173	 -0.567	 32.700	 99.101	  0.207
42161	  0.271	 -0.135	  0.582	 -0.372	 -0.376	 -9.266	  0.605	  0.018	 -0.370	 32.700	 99.112	 -0.790
42211	  0.288	 -0.111	  0.580	 -0.443	 -1.729	 -9.038	  1.046	 -0.405	  0.146	 32.700	 99.097	  0.570
42261	  0.312	 -0.072	  0.575	 -1.148	 -2.046	 -10.006	  0.771	 -0.331	  0.208	 32.700	 99.101	  0.207
42311	  0.328	 -0.055	  0.569	 -0.653	 -2.196	 -11.092	  0.615	 -0.235	  0.438	 32.700	 99.101	  0.207
42361	  0.342	 -0.044	  0.554	 -1.143	 -2.389	 -9.634	  0.369	 -0.352	  0.490	 32.700	 99.101	  0.207
42411	  0.364	 -0.041	  0.541	 -0.973	 -2.020	 -10.547	  0.328	 -0.584	  0.478	 32.700	 99.097	  0.570
42461	  0.380	 -0.034	  0.534	 -1.135	 -3.109	 -10.457	  0.486	 -0.021	  0.274	 32.700	 99.097	  0.570
42511	  0.390	 -0.020	  0.538	 -1.990	 -2.014	 -9.557	  0.344	 -0.172	 -0.019	 32.700	 99.108	 -0.427
42561	  0.403	 -0.008	  0.535	 -2.714	 -2.715	 -9.983	  0.207	 -0.095	 -0.198	 32.700	 99.101	  0.207
42611	  0.403	 -0.012	  0.536	 -1.953	 -3.049	 -10.025	 -0.631	  0.232	 -0.209	 32.700	 99.097	  0.570
42661	  0.394	 -0.028	  0.545	 -1.986	 -1.872	 -9.233	 -0.672	  0.285	 -0.448	 32.700	 99.108	 -0.427
42711	  0.387	 -0.034	  0.548	 -1.686	 -1.956	 -9.017	 -0.328	  0.188	 -0.462	 32.700	 99.097	  0.570
42761	  0.391	 -0.030	  0.555	 -1.211	 -2.187	 -9.641	 -0.066	 -0.034	 -0.516	 32.700	 99.097	  0.570
42811	  0.388	 -0.011	  0.557	 -1.836	 -2.183	 -10.861	  0.141	  0.311	 -0.475	 32.700	 99.108	 -0.427
42861	  0.373	 -0.009	  0.573	 -1.434	 -2.504	 -9.727	 -0.236	  0.595	 -0.484	 32.700	 99.097	  0.570
42911	  0.361	 -0.009	  0.580	 -1.202	 -1.924	 -8.048	  0.024	  0.006	 -0.324	 32.700	 99.097	  0.570
42961	  0.362	 -0.000	  0.577	 -1.264	 -2.928	 -9.024	  0.118	 -0.133	 -0.469	 32.700	 99.097	  0.570
43011	  0.371	  0.013	  0.585	 -1.303	 -2.304	 -9.013	  0.172	 -0.188	 -0.194	 32.700	 99.101	  0.207
43061	  0.373	  0.025	  0.585	 -1.191	 -2.912	 -10.462	  0.167	  0.140	 -0.402	 32.700	 99.108	 -0.427
43111	  0.365	  0.040	  0.590	 -0.907	 -2.389	 -9.786	  0.419	  0.259	 -0.266	 32.700	 99.097	  0.570
43161	  0.359	  0.057	  0.590	  0.235	 -3.262	 -11.180	  0.107	 -0.135	  0.006	 32.700	 99.097	  0.570
43211	  0.360	  0.053	  0.590	 -0.597	 -2.632	 -9.606	 -0.276	 -0.294	 -0.365	 32.700	 99.097	  0.570
43261	  0.355	  0.051	  0.594	 -0.636	 -1.879	 -8.153	 -0.269	  0.114	 -0.371	 32.700	 99.097	  0.570
43311	  0.339	  0.056	  0.606	 -0.153	 -2.039	 -7.865	 -0.137	  0.427	 -0.700	 32.700	 99.097	  0.570
43361	  0.327	  0.069	  0.613	 -1.216	 -1.382	 -7.989	 -0.024	  0.136	 -0.799	 32.700	 99.108	 -0.427
43411	  0.323	  0.082	  0.623	 -0.996	 -2.530	 -8.969	  0.081	  0.098	 -0.644	 32.700	 99.097	  0.570
43461	  0.319	  0.095	  0.631	 -1.170	 -2.614	 -9.662	 -0.029	  0.294	 -0.434	 32.700	 99.101	  0.207
43511	  0.308	  0.104	  0.644	 -0.327	 -2.596	 -10.228	  0.002	  0.436	 -0.374	 32.700	 99.101	  0.207
43561	  0.298	  0.114	  0.646	  0.054	 -3.754	 -10.542	  0.097	  0.278	 -0.256	 32.700	 99.112	 -0.790
43611	  0.289	  0.119	  0.648	 -0.199	 -3.203	 -10.320	  0.090	 -0.105	  0.090	 32.700	 99.097	  0.570
43661	  0.289	  0.105	  0.651	  0.059	 -2.860	 -9.767	 -0.589	  0.294	 -0.065	 32.700	 99.097	  0.570
43711	  0.255	  0.078	  0.648	  0.511	 -2.341	 -8.589	 -0.644	  0.773	 -0.354	 32.700	 99.101	  0.207
43761	  0.229	  0.068	  0.662	  0.361	 -1.332	 -7.778	 -0.338	  0.438	 -0.323	 32.700	 99.097	  0.570
43811	  0.221	  0.068	  0.666	  1.390	 -1.214	 -9.030	  0.127	  0.239	 -0.275	 32.700	 99.112	 -0.790
43861	  0.210	  0.083	  0.674	  0.781	 -1.296	 -9.350	 -0.035	  0.414	 -0.254	 32.700	 99.097	  0.570
43911	  0.206	  0.088	  0.677	  1.431	 -1.474	 -9.843	  0.120	  0.065	  0.012	 32.700	 99.108	 -0.427
43961	  0.213	  0.092	  0.689	  1.384	 -1.815	 -10.463	 -0.125	  0.026	 -0.084	 32.700	 99.101	  0.207
44011	  0.212	  0.085	  0.691	  1.690	 -2.195	 -10.141	 -0.216	  0.315	 -0.370	 32.700	 99.097	  0.570
44061	  0.206	  0.081	  0.699	  1.010	 -1.804	 -9.265	 -0.056	  0.141	 -0.213	 32.700	 99.097	  0.570
44111	  0.209	  0.087	  0.708	  0.890	 -1.963	 -9.028	  0.173	  0.059	 -0.347	 32.700	 99.097	  0.570
44161	  0.216	  0.103	  0.711	  1.972	 -2.685	 -11.405	  0.159	  0.078	 -0.168	 32.700	 99.101	  0.207
44211	  0.219	  0.104	  0.713	  1.783	 -2.415	 -10.274	 -0.409	 -0.218	 -0.568	 32.700	 99.108	 -0.427
44261	  0.228	  0.085	  0.702	  0.733	 -1.156	 -8.876	 -0.409	 -0.246	 -0.182	 32.700	 99.108	 -0.427
44311	  0.244	  0.073	  0.709	  1.770	 -1.739	 -9.115	 -0.343	 -0.397	 -0.234	 32.700	 99.097	  0.570
44361	  0.245	  0.067	  0.707	  1.027	 -0.748	 -10.046	 -0.640	  0.197	 -0.485	 32.700	 99.097	  0.570
44411	  0.241	  0.037	  0.710	  0.150	 -0.408	 -9.056	 -0.565	 -0.162	 -0.174	 32.700	 99.097	  0.570
44461	  0.260	  0.025	  0.703	  1.425	 -1.046	 -9.667	 -0.025	 -0.232	  0.066	 32.700	 99.097	  0.570
44511	  0.266	  0.032	  0.705	  1.363	 -0.269	 -10.125	  0.044	 -0.037	 -0.094	 32.700	 99.097	  0.570
44561	  0.267	  0.030	  0.706	  1.879	 -0.906	 -10.466	 -0.227	 -0.045	 -0.379	 32.700	 99.097	  0.570
44611	  0.275	  0.019	  0.703	  0.625	  0.190	 -9.512	 -0.476	 -0.413	 -0.435	 32.700	 99.108	 -0.427
44661	  0.288	  0.005	  0.698	  0.802	 -0.732	 -9.450	 -0.581	 -0.263	 -0.244	 32.700	 99.108	 -0.427
44711	  0.304	 -0.009	  0.689	  0.473	  0.953	 -9.579	 -0.174	 -0.573	 -0.295	 32.700	 99.085	  1.659
44761	  0.324	 -0.018	  0.684	  0.451	  0.242	 -10.055	 -0.291	 -0.339	 -0.043	 32.700	 99.101	  0.207
44811	  0.334	 -0.018	  0.681	  0.107	  0.376	 -9.272	  0.179	 -0.291	  0.017	 32.700	 99.101	  0.207
44861	  0.349	 -0.009	  0.675	 -0.017	 -0.172	 -9.768	  0.134	 -0.111	 -0.334	 32.700	 99.097	  0.570
44911	  0.350	  0.005	  0.676	  0.035	  0.402	 -10.082	 -0.153	 -0.614	 -0.675	 32.700	 99.108	 -0.427
44961	  0.388	  0.002	  0.664	  0.243	 -0.698	 -9.434	 -0.376	 -0.873	 -0.218	 32.700	 99.104	 -0.064
45011	  0.419	 -0.004	  0.651	  0.532	 -0.735	 -9.897	 -0.106	 -0.603	 -0.414	 32.700	 99.112	 -0.790
45061	  0.439	 -0.024	  0.638	 -1.363	  1.059	 -11.374	 -1.269	 -0.333	  0.045	 32.700	 99.097	  0.570
45111	  0.436	 -0.079	  0.637	 -1.957	  1.933	 -10.007	 -1.457	  0.040	  0.334	 32.700	 99.097	  0.570
45161	  0.420	 -0.125	  0.628	 -1.554	  2.754	 -7.683	 -0.055	  0.218	  0.305	 32.700	 99.101	  0.207
45211	  0.425	 -0.110	  0.630	 -0.950	  1.151	 -8.025	  1.343	 -0.088	  0.676	 32.700	 99.108	 -0.427
45261	  0.426	 -0.079	  0.632	  0.995	  0.037	 -11.258	  0.350	  0.251	 -0.481	 32.700	 99.108	 -0.427
45311	  0.419	 -0.064	  0.638	 -1.823	  1.411	 -9.446	 -0.105	  0.109	 -0.290	 32.700	 99.097	  0.570
45361	  0.415	 -0.066	  0.642	 -0.783	  1.289	 -9.657	  0.081	  0.119	 -0.052	 32.700	 99.097	  0.570
45411	  0.412	 -0.049	  0.642	  0.311	  0.737	 -9.597	  0.143	  0.066	 -0.063	 32.700	 99.097	  0.570
45461	  0.413	 -0.047	  0.650	 -0.857	  0.564	 -9.665	  0.098	 -0.042	 -0.492	 32.700	 99.097	  0.570
45511	  0.420	 -0.037	  0.642	 -1.336	  1.842	 -9.291	  0.124	 -0.242	 -0.145	 32.700	 99.097	  0.570
45561	  0.429	 -0.030	  0.640	 -1.042	  0.540	 -9.781	  0.140	 -0.268	 -0.076	 32.700	 99.108	 -0.427
45611	  0.446	 -0.012	  0.635	 -0.801	  0.573	 -9.985	  0.191	 -0.198	 -0.156	 32.700	 99.097	  0.570
45661	  0.446	 -0.007	  0.639	  1.928	  0.418	 -9.008	  0.025	  0.127	 -0.302	 32.700	 99.097	  0.570
45711	  0.434	 -0.006	  0.645	  1.295	  0.372	 -8.671	 -0.258	  0.539	 -0.305	 32.700	 99.097	  0.570
45761	  0.419	 -0.003	  0.659	 -0.952	  0.949	 -9.036	 -0.094	  0.359	 -0.207	 32.700	 99.108	 -0.427
45811	  0.402	  0.002	  0.671	 -1.758	  2.275	 -9.964	  0.040	  0.530	 -0.166	 32.700	 99.101	  0.207
45861	  0.392	  0.021	  0.677	 -0.320	  0.066	 -9.644	  0.430	  0.484	 -0.301	 32.700	 99.097	  0.570
45911	  0.373	  0.050	  0.693	 -0.031	  0.195	 -9.469	  0.759	  0.369	 -0.322	 32.700	 99.097	  0.570
45961	  0.365	  0.098	  0.700	 -2.677	 -0.043	 -11.525	  1.001	  0.544	 -0.348	 32.700	 99.097	  0.570
46011	  0.325	  0.138	  0.716	  0.948	 -1.433	 -9.819	  1.236	  1.781	 -0.001	 32.700	 99.108	 -0.427
46061	  0.261	  0.185	  0.725	  0.232	 -0.045	 -9.048	  0.591	  0.924	  0.005	 32.700	 99.093	  0.933
46111	  0.253	  0.193	  0.731	  1.853	 -1.140	 -10.023	 -0.344	 -0.122	 -0.468	 32.700	 99.097	  0.570
46161	  0.251	  0.188	  0.732	  2.203	 -1.209	 -9.821	 -0.273	  0.114	 -0.228	 32.700	 99.097	  0.570
46211	  0.246	  0.179	  0.732	  1.615	 -0.403	 -9.919	 -0.066	 -0.139	 -0.265	 32.700	 99.097	  0.570
46261	  0.250	  0.176	  0.735	  0.683	 -1.026	 -8.999	  0.039	  0.103	 -0.108	 32.700	 99.097	  0.570
46311	  0.242	  0.186	  0.734	  3.597	 -1.124	 -11.090	 -0.082	 -0.196	 -0.381	 32.700	 99.097	  0.570
46361	  0.264	  0.174	  0.737	  1.223	 -1.172	 -8.604	 -0.586	 -0.735	 -0.319	 32.700	 99.097	  0.570
46411	  0.281	  0.150	  0.735	  0.966	  0.022	 -9.850	 -0.662	 -0.411	 -0.348	 32.700	 99.081	  2.021
46461	  0.293	  0.125	  0.736	  0.682	 -0.361	 -9.107	 -0.523	 -0.286	 -0.217	 32.700	 99.108	 -0.427
46511	  0.301	  0.115	  0.734	  0.729	  0.184	 -9.872	 -0.237	 -0.159	 -0.193	 32.700	 99.108	 -0.427
46561	  0.303	  0.113	  0.730	  0.910	 -0.252	 -9.605	  0.036	 -0.008	 -0.120	 32.700	 99.097	  0.570
46611	  0.299	  0.117	  0.732	  0.301	  0.356	 -9.346	  0.073	  0.046	 -0.294	 32.700	 99.097	  0.570
46661	  0.303	  0.128	  0.729	  0.873	  0.518	 -9.670	  0.044	 -0.100	 -0.104	 32.700	 99.097	  0.570
46711	  0.300	  0.132	  0.734	  1.659	 -0.147	 -9.451	  0.308	  0.349	 -0.176	 32.700	 99.097	  0.570
46762	  0.285	  0.170	  0.734	  0.352	 -0.073	 -10.246	  0.497	 -0.096	  0.028	 32.700	 99.104	 -0.064
46811	  0.280	  0.170	  0.734	 -0.255	  0.466	 -10.486	  0.009	  0.134	  0.043	 32.700	 99.097	  0.570
46861	  0.280	  0.176	  0.738	  0.613	 -0.406	 -9.908	 -0.064	  0.112	  0.004	 32.700	 99.085	  1.659
46911	  0.286	  0.168	  0.740	  1.179	 -0.285	 -9.840	 -0.106	 -0.356	 -0.044	 32.700	 99.097	  0.570
46961	  0.290	  0.168	  0.736	  0.579	 -0.063	 -10.276	 -0.028	  0.019	 -0.033	 32.700	 99.097	  0.570
47011	  0.292	  0.170	  0.738	  0.793	 -0.009	 -9.634	  0.125	  0.029	  0.025	 32.700	 99.097	  0.570
47061	  0.290	  0.177	  0.740	  0.758	 -0.307	 -9.542	  0.238	  0.173	  0.119	 32.700	 99.097	  0.570
47112	  0.280	  0.192	  0.731	  1.164	 -0.940	 -9.590	  0.645	  0.340	  0.259	 32.700	 99.104	 -0.064
47161	  0.277	  0.214	  0.728	  1.158	 -0.960	 -9.354	  0.357	  0.089	  0.222	 32.700	 99.097	  0.570
47212	  0.281	  0.225	  0.726	  0.646	 -0.985	 -9.603	  0.037	 -0.037	  0.122	 32.700	 99.097	  0.570
47261	  0.285	  0.229	  0.729	  1.004	 -0.640	 -9.780	  0.150	 -0.097	  0.114	 32.700	 99.108	 -0.427
47312	  0.296	  0.229	  0.725	  1.106	 -1.509	 -9.953	  0.032	 -0.083	  0.171	 32.700	 99.097	  0.570
47361	  0.298	  0.230	  0.721	  1.611	 -1.952	 -10.524	 -0.166	  0.091	  0.092	 32.700	 99.101	  0.207
47412	  0.293	  0.217	  0.713	  0.668	 -1.627	 -7.952	 -0.099	 -0.111	 -0.027	 32.700	 99.108	 -0.427
47462	  0.292	  0.222	  0.709	  1.629	 -1.749	 -9.456	  0.018	 -0.096	 -0.335	 32.700	 99.108	 -0.427
47512	  0.293	  0.231	  0.701	  0.543	 -0.662	 -9.809	  0.025	 -0.161	 -0.204	 32.700	 99.097	  0.570
47562	  0.296	  0.228	  0.693	  1.309	  0.358	 -8.590	 -0.088	 -0.276	 -0.074	 32.700	 99.097	  0.570
47612	  0.296	  0.241	  0.685	  1.336	 -0.850	 -9.166	  0.204	 -0.062	 -0.306	 32.700	 99.108	 -0.427
47662	  0.301	  0.261	  0.681	 -0.299	 -0.148	 -9.389	  0.404	 -0.048	 -0.073	 32.700	 99.108	 -0.427
47712	  0.312	  0.275	  0.678	  0.515	 -1.159	 -10.195	  0.272	  0.006	  0.088	 32.700	 99.097	  0.570
47762	  0.309	  0.284	  0.684	  0.187	 -1.466	 -10.293	  0.091	  0.033	  0.057	 32.700	 99.108	 -0.427
47812	  0.312	  0.283	  0.683	  0.770	 -0.820	 -8.484	  0.196	 -0.068	  0.065	 32.700	 99.097	  0.570
47862	  0.322	  0.315	  0.667	  0.519	 -1.270	 -8.252	  0.793	 -0.154	  0.014	 32.700	 99.108	 -0.427
47912	  0.340	  0.343	  0.670	  0.889	 -1.923	 -9.822	  0.476	 -0.135	  0.109	 32.700	 99.097	  0.570
47962	  0.349	  0.352	  0.661	  0.255	 -1.999	 -9.613	 -0.146	 -0.029	  0.004	 32.700	 99.097	  0.570
48012	  0.356	  0.356	  0.668	  0.270	 -2.123	 -9.922	  0.273	 -0.029	  0.062	 32.700	 99.097	  0.570
48062	  0.363	  0.368	  0.668	  0.495	 -2.117	 -9.659	  0.209	  0.073	  0.055	 32.700	 99.097	  0.570
48112	  0.368	  0.373	  0.667	  0.978	 -1.896	 -7.781	  0.124	 -0.065	  0.056	 32.700	 99.097	  0.570
48162	  0.380	  0.414	  0.652	  0.012	 -2.356	 -10.343	  1.397	  0.102	 -0.013	 32.700	 99.097	  0.570
48212	  0.401	  0.461	  0.638	 -0.198	 -3.103	 -9.437	  0.498	 -0.211	  0.018	 32.700	 99.108	 -0.427
48262	  0.418	  0.472	  0.625	  0.080	 -3.316	 -11.812	 -0.016	 -0.152	  0.013	 32.700	 99.097	  0.570
48312	  0.426	  0.467	  0.623	  0.430	 -2.555	 -8.234	  0.073	 -0.163	  0.078	 32.700	 99.093	  0.933
48362	  0.431	  0.468	  0.618	  0.665	 -2.717	 -11.067	 -0.047	 -0.150	  0.174	 32.700	 99.097	  0.570
48412	  0.435	  0.458	  0.610	 -0.188	 -2.749	 -8.962	 -0.164	 -0.048	  0.056	 32.700	 99.108	 -0.427
48462	  0.439	  0.454	  0.616	  0.018	 -3.183	 -9.682	 -0.083	 -0.132	  0.064	 32.700	 99.097	  0.570
48512	  0.440	  0.446	  0.613	 -0.369	 -2.645	 -9.517	 -0.089	  0.012	  0.051	 32.700	 99.108	 -0.427
48562	  0.446	  0.436	  0.616	 -0.118	 -3.153	 -9.666	 -0.030	 -0.210	  0.131	 32.700	 99.097	  0.570
48612	  0.448	  0.432	  0.612	 -0.225	 -3.321	 -9.836	 -0.241	 -0.057	  0.107	 32.700	 99.108	 -0.427
48662	  0.453	  0.402	  0.601	  0.679	 -3.498	 -9.474	 -0.457	 -0.339	  0.407	 32.700	 99.108	 -0.427
48712	  0.446	  0.372	  0.615	 -0.857	 -1.792	 -9.687	 -0.493	  0.125	  0.010	 32.700	 99.108	 -0.427
48762	  0.434	  0.344	  0.621	 -0.560	 -2.260	 -9.605	 -0.637	  0.088	  0.098	 32.700	 99.104	 -0.064
48812	  0.421	  0.306	  0.633	 -0.659	 -1.248	 -9.263	 -0.741	  0.153	  0.252	 32.700	 99.108	 -0.427
48862	  0.413	  0.275	  0.640	 -0.737	 -1.619	 -9.705	 -0.491	  0.099	  0.216	 32.700	 99.097	  0.570
48912	  0.407	  0.251	  0.645	  0.352	 -1.177	 -10.017	 -0.497	  0.154	  0.133	 32.700	 99.108	 -0.427
48962	  0.396	  0.216	  0.643	 -0.094	 -1.504	 -8.896	 -0.555	  0.118	  0.146	 32.700	 99.108	 -0.427
49012	  0.394	  0.200	  0.651	 -0.162	 -0.688	 -9.627	 -0.417	  0.011	  0.207	 32.700	 99.108	 -0.427
49062	  0.392	  0.176	  0.648	 -0.244	 -0.415	 -8.965	 -0.182	 -0.061	  0.108	 32.700	 99.097	  0.570
49112	  0.399	  0.165	  0.643	 -0.652	 -0.839	 -10.592	 -0.251	 -0.261	  0.358	 32.700	 99.097	  0.570
49162	  0.402	  0.140	  0.639	 -1.303	 -0.482	 -7.940	 -0.143	 -0.113	  0.622	 32.700	 99.097	  0.570
49212	  0.400	  0.119	  0.630	 -0.706	 -0.451	 -10.207	 -0.398	  0.145	  0.450	 32.700	 99.104	 -0.064
49262	  0.386	  0.080	  0.628	 -1.095	  0.123	 -10.372	 -0.804	  0.311	  0.872	 32.700	 99.097	  0.570
49312	  0.376	  0.033	  0.624	 -1.047	  0.548	 -8.153	 -0.373	 -0.064	  0.774	 32.700	 99.108	 -0.427
49362	  0.374	  0.008	  0.619	  0.180	  0.312	 -9.746	 -0.162	 -0.065	  0.618	 32.700	 99.097	  0.570
49412	  0.374	 -0.002	  0.608	  0.812	  0.495	 -9.256	  0.067	 -0.211	  0.242	 32.700	 99.108	 -0.427
49462	  0.384	 -0.002	  0.608	 -0.249	  1.005	 -9.279	  0.127	 -0.396	 -0.245	 32.700	 99.108	 -0.427
49512	  0.393	  0.011	  0.600	 -2.138	  1.147	 -10.771	  0.179	 -0.279	  0.045	 32.700	 99.104	 -0.064
49562	  0.402	  0.005	  0.592	 -0.694	  0.033	 -10.459	  0.014	 -0.387	 -0.004	 32.700	 99.108	 -0.427
49612	  0.410	 -0.003	  0.579	 -0.583	 -0.188	 -10.688	 -0.239	 -0.386	  0.111	 32.700	 99.097	  0.570
49661	  0.416	 -0.009	  0.580	 -1.463	  0.712	 -8.550	 -0.017	 -0.285	 -0.014	 32.700	 99.097	  0.570
49711	  0.421	 -0.008	  0.571	 -0.430	 -0.116	 -9.169	  0.366	 -0.182	 -0.030	 32.700	 99.108	 -0.427
49761	  0.426	  0.008	  0.566	 -2.042	 -0.121	 -9.978	  0.402	 -0.229	  0.057	 32.700	 99.104	 -0.064
49811	  0.434	  0.016	  0.555	 -1.499	 -0.724	 -8.543	  0.782	 -0.542	  0.208	 32.700	 99.097	  0.570
49861	  0.452	  0.054	  0.539	 -1.860	 -0.078	 -10.317	  0.919	 -0.398	  0.090	 32.700	 99.097	  0.570
49911	  0.454	  0.057	  0.534	 -0.779	 -0.194	 -9.750	  0.233	  0.092	  0.199	 32.700	 99.104	 -0.064
49961	  0.456	  0.079	  0.534	 -0.605	 -0.092	 -8.769	  0.499	 -0.070	 -0.590	 32.700	 99.108	 -0.427
50011	  0.463	  0.124	  0.537	 -1.376	 -0.264	 -8.323	  0.892	  0.013	 -0.782	 32.700	 99.097	  0.570
50061	  0.469	  0.186	  0.540	 -1.647	 -1.448	 -9.665	  0.710	  0.114	 -0.907	 32.700	 99.108	 -0.427
50111	  0.472	  0.228	  0.552	 -1.045	 -1.937	 -10.209	  0.201	  0.402	 -0.868	 32.700	 99.097	  0.570
50161	  0.453	  0.263	  0.582	 -0.346	 -2.638	 -8.766	 -0.148	  0.775	 -0.930	 32.700	 99.108	 -0.427
50211	  0.433	  0.285	  0.625	 -0.990	 -2.226	 -9.262	 -0.196	  0.668	 -0.721	 32.700	 99.093	  0.933
50261	  0.408	  0.301	  0.668	 -0.287	 -2.806	 -9.320	 -0.331	  0.945	 -0.505	 32.700	 99.097	  0.570
50311	  0.366	  0.312	  0.718	 -0.668	 -3.148	 -9.129	 -0.349	  1.468	 -0.358	 32.700	 99.093	  0.933
50361	  0.333	  0.322	  0.760	 -0.595	 -2.319	 -8.926	 -0.017	  0.864	 -0.124	 32.700	 99.108	 -0.427
50411	  0.328	  0.355	  0.775	  1.069	 -1.691	 -10.962	  0.374	  0.711	 -0.133	 32.700	 99.097	  0.570
50461	  0.319	  0.381	  0.791	  1.787	 -2.251	 -9.149	  0.124	  0.697	 -0.332	 32.700	 99.093	  0.933
50511	  0.313	  0.417	  0.801	  2.160	 -2.816	 -8.818	  0.426	  0.426	 -0.290	 32.700	 99.104	 -0.064
50561	  0.327	  0.426	  0.806	  1.869	 -1.933	 -10.010	 -0.333	 -0.112	 -0.178	 32.700	 99.108	 -0.427
50611	  0.345	  0.428	  0.805	  1.946	 -1.829	 -8.855	 -0.214	  0.086	 -0.019	 32.700	 99.104	 -0.064
50661	  0.367	  0.443	  0.808	  5.224	 -2.315	 -8.515	  0.353	 -0.263	 -0.433	 32.700	 99.104	 -0.064
50711	  0.380	  0.502	  0.824	  0.790	 -1.504	 -9.201	  0.797	  0.827	 -0.114	 32.700	 99.115	 -1.062
50761	  0.403	  0.572	  0.822	  3.484	 -2.924	 -9.368	  0.879	  0.845	  0.300	 32.700	 99.093	  0.933
50811	  0.434	  0.637	  0.817	  1.722	 -2.619	 -10.485	  0.892	  0.356	  0.329	 32.700	 99.108	 -0.427
50861	  0.485	  0.686	  0.799	  3.525	 -3.144	 -12.870	 -0.245	 -0.400	  0.006	 32.700	 99.097	  0.570
50911	  0.485	  0.660	  0.822	  1.910	 -2.700	 -8.568	 -0.333	  0.160	 -0.192	 32.700	 99.108	 -0.427
50961	  0.495	  0.660	  0.829	  3.302	 -3.328	 -7.541	 -0.022	  0.148	  0.013	 32.700	 99.108	 -0.427
51011	  0.526	  0.689	  0.830	  2.151	 -3.169	 -7.158	  0.472	 -0.054	 -0.019	 32.700	 99.093	  0.933
51061	  0.612	  0.760	  0.806	  3.295	 -3.299	 -6.502	  1.185	 -0.316	  0.311	 32.700	 99.093	  0.933
51111	  0.775	  0.879	  0.733	  1.432	 -4.182	 -8.764	  1.871	 -0.181	  0.675	 32.700	 99.104	 -0.064
51161	  0.900	  0.929	  0.652	 -0.272	 -6.386	 -12.039	 -0.283	 -0.208	 -0.212	 32.700	 99.093	  0.933
51211	  0.847	  0.929	  0.680	  3.202	 -3.349	 -7.013	 -0.223	 -0.076	 -0.213	 32.700	 99.104	 -0.064
51261	  0.840	  0.917	  0.687	  2.531	 -3.695	 -8.647	 -0.487	  0.133	 -0.285	 32.700	 99.097	  0.570
51311	  0.832	  0.913	  0.704	  2.697	 -4.077	 -9.019	 -0.327	  0.028	 -0.149	 32.700	 99.108	 -0.427
51361	  0.825	  0.888	  0.732	  2.463	 -4.160	 -8.820	 -0.648	  0.298	  0.100	 32.700	 99.104	 -0.064
51411	  0.816	  0.836	  0.785	  2.262	 -3.035	 -7.213	 -1.094	  0.325	  0.695	 32.700	 99.115	 -1.062
51461	  0.864	  0.749	  0.851	  2.701	 -2.552	 -7.903	 -1.284	 -0.144	  1.095	 32.700	 99.104	 -0.064
51511	  0.912	  0.641	  0.907	  1.145	 -9.877	 -12.039	 -1.095	  0.684	  0.266	 32.700	 99.104	 -0.064
51561	  0.824	  0.550	  0.972	  2.118	 -1.100	 -7.304	 -0.280	  0.446	  0.102	 32.700	 99.104	 -0.064
51611	  0.831	  0.553	  0.968	  2.717	 -2.792	 -9.912	  0.217	 -0.206	  0.086	 32.700	 99.104	 -0.064
51661	  0.832	  0.555	  0.963	  2.947	 -2.051	 -8.528	 -0.061	  0.060	  0.005	 32.700	 99.097	  0.570
51711	  0.833	  0.554	  0.967	  2.862	 -2.143	 -9.031	 -0.017	  0.013	 -0.001	 32.700	 99.108	 -0.427
51761	  0.831	  0.551	  0.969	  2.873	 -2.166	 -9.086	 -0.009	  0.009	 -0.001	 32.700	 99.104	 -0.064
51811	  0.835	  0.552	  0.969	  2.887	 -2.099	 -8.885	  0.013	 -0.005	  0.000	 32.700	 99.104	 -0.064
51861	  0.839	  0.565	  0.965	  2.995	 -2.062	 -7.712	  0.500	 -0.278	 -0.041	 32.700	 99.093	  0.933
51911	  0.910	  0.638	  0.905	  2.253	 -2.820	 -10.632	  1.128	 -1.039	 -0.160	 32.700	 99.115	 -1.062
51961	  0.884	  0.614	  0.933	  2.813	 -2.434	 -9.549	 -0.973	  0.575	 -0.108	 32.700	 99.093	  0.933
52011	  0.834	  0.569	  0.973	  3.594	 -2.820	 -7.027	 -0.062	  0.159	  0.006	 32.700	 99.093	  0.933
52061	  0.843	  0.579	  0.969	  2.871	 -2.128	 -8.861	 -0.024	  0.011	 -0.002	 32.700	 99.093	  0.933
52111	  0.842	  0.574	  0.970	  2.812	 -2.175	 -9.155	 -0.017	  0.020	 -0.001	 32.700	 99.104	 -0.064
52161	  0.841	  0.577	  0.968	  2.851	 -2.189	 -9.091	 -0.005	  0.004	  0.001	 32.700	 99.104	 -0.064
52211	  0.843	  0.573	  0.971	  2.811	 -2.177	 -9.082	 -0.002	  0.002	 -0.000	 32.700	 99.097	  0.570
52261	  0.841	  0.577	  0.975	  2.829	 -2.198	 -9.061	 -0.002	 -0.000	 -0.001	 32.700	 99.097	  0.570
52311	  0.843	  0.583	  0.967	  2.832	 -2.196	 -9.034	 -0.002	 -0.001	  0.000	 32.700	 99.104	 -0.064
52361	  0.843	  0.571	  0.968	  2.843	 -2.202	 -9.036	  0.002	 -0.003	 -0.000	 32.700	 99.119	 -1.425
52411	  0.846	  0.572	  0.967	  2.804	 -2.211	 -9.181	  0.010	 -0.020	 -0.001	 32.700	 99.104	 -0.064
52461	  0.844	  0.579	  0.967	  2.826	 -2.154	 -8.973	  0.003	 -0.008	  0.001	 32.700	 99.115	 -1.062
52511	  0.850	  0.582	  0.968	  2.716	 -2.295	 -9.417	  0.020	 -0.028	 -0.010	 32.700	 99.119	 -1.425
52561	  0.853	  0.579	  0.970	  3.078	 -2.765	 -8.381	  0.043	 -0.081	 -0.024	 32.700	 99.115	 -1.062
52612	  0.872	  0.599	  0.955	  2.732	 -2.731	 -9.507	  0.218	 -0.320	 -0.076	 32.700	 99.108	 -0.427
52661	  0.883	  0.608	  0.948	  2.611	 -2.257	 -9.090	 -0.040	  0.055	  0.005	 32.700	 99.097	  0.570
52712	  0.883	  0.606	  0.949	  2.607	 -2.407	 -9.293	 -0.019	  0.008	  0.006	 32.700	 99.104	 -0.064
52761	  0.884	  0.604	  0.949	  2.589	 -2.349	 -9.353	  0.004	 -0.007	  0.001	 32.700	 99.097	  0.570
52811	  0.884	  0.607	  0.949	  2.598	 -2.365	 -9.199	  0.008	 -0.007	  0.001	 32.700	 99.104	 -0.064
52861	  0.885	  0.609	  0.951	  2.612	 -2.342	 -9.165	 -0.002	 -0.003	 -0.001	 32.700	 99.104	 -0.064
52911	  0.882	  0.607	  0.948	  2.637	 -2.320	 -9.112	 -0.005	 -0.003	  0.003	 32.700	 99.093	  0.933
52961	  0.880	  0.604	  0.948	  2.641	 -2.158	 -8.774	 -0.006	  0.010	  0.007	 32.700	 99.104	 -0.064
53011	  0.884	  0.602	  0.947	  2.596	 -2.304	 -9.115	 -0.005	 -0.003	  0.002	 32.700	 99.093	  0.933
53062	  0.889	  0.610	  0.947	  2.542	 -2.383	 -9.249	  0.046	 -0.083	 -0.012	 32.700	 99.104	 -0.064
53112	  0.890	  0.606	  0.945	  2.617	 -2.343	 -9.052	 -0.006	  0.006	  0.002	 32.700	 99.093	  0.933
53162	  0.888	  0.609	  0.944	  2.631	 -2.370	 -8.948	 -0.002	  0.009	  0.003	 32.700	 99.097	  0.570
53212	  0.890	  0.608	  0.946	  2.616	 -2.371	 -9.130	 -0.010	  0.010	 -0.000	 32.700	 99.108	 -0.427
53262	  0.888	  0.612	  0.938	  2.599	 -2.363	 -9.097	 -0.013	  0.013	  0.003	 32.700	 99.104	 -0.064
53312	  0.888	  0.612	  0.946	  2.584	 -2.474	 -9.270	 -0.008	  0.013	  0.000	 32.700	 99.104	 -0.064
53362	  0.889	  0.608	  0.941	  2.559	 -2.373	 -9.291	 -0.005	  0.011	  0.002	 32.700	 99.104	 -0.064
53412	  0.889	  0.610	  0.945	  2.591	 -2.364	 -9.161	 -0.002	 -0.002	  0.001	 32.700	 99.104	 -0.064
53462	  0.889	  0.606	  0.946	  2.590	 -2.377	 -9.108	 -0.002	  0.002	  0.001	 32.700	 99.104	 -0.064
53512	  0.889	  0.611	  0.946	  2.601	 -2.325	 -9.092	 -0.004	  0.001	  0.001	 32.700	 99.104	 -0.064
53562	  0.886	  0.607	  0.946	  2.597	 -2.374	 -9.111	 -0.003	  0.004	  0.001	 32.700	 99.104	 -0.064
53612	  0.888	  0.605	  0.947	  2.574	 -2.349	 -9.158	 -0.003	  0.001	  0.001	 32.700	 99.104	 -0.064
53662	  0.887	  0.610	  0.945	  2.707	 -2.561	 -9.062	 -0.008	  0.018	 -0.006	 32.700	 99.104	 -0.064
53712	  0.888	  0.610	  0.943	  2.613	 -2.347	 -9.064	 -0.000	 -0.004	  0.001	 32.700	 99.104	 -0.064
53762	  0.887	  0.608	  0.945	  2.590	 -2.370	 -9.171	 -0.007	 -0.004	  0.000	 32.700	 99.108	 -0.427
53812	  0.886	  0.609	  0.945	  2.644	 -2.370	 -9.044	 -0.007	  0.008	  0.001	 32.700	 99.115	 -1.062
53862	  0.889	  0.607	  0.948	  2.635	 -2.307	 -8.973	  0.005	 -0.012	 -0.002	 32.700	 99.093	  0.933
53912	  0.888	  0.614	  0.944	  2.608	 -2.341	 -9.051	  0.001	 -0.004	 -0.002	 32.700	 99.093	  0.933
53962	  0.889	  0.608	  0.946	  2.570	 -2.349	 -9.153	  0.004	 -0.012	 -0.003	 32.700	 99.093	  0.933
54012	  0.890	  0.612	  0.942	  2.603	 -2.346	 -9.177	 -0.003	  0.006	 -0.001	 32.700	 99.097	  0.570
54061	  0.891	  0.610	  0.945	  2.589	 -2.533	 -10.385	 -0.007	  0.060	  0.002	 32.700	 99.097	  0.570
54111	  0.888	  0.610	  0.942	  2.694	 -2.380	 -8.850	 -0.031	 -0.001	  0.003	 32.700	 99.104	 -0.064
54162	  0.889	  0.607	  0.944	  2.601	 -2.449	 -9.287	  0.002	 -0.015	 -0.005	 32.700	 99.104	 -0.064
54212	  0.887	  0.612	  0.945	  2.550	 -2.393	 -9.223	 -0.024	  0.039	  0.003	 32.700	 99.093	  0.933
54262	  0.887	  0.609	  0.946	  2.605	 -2.356	 -9.046	 -0.003	  0.001	 -0.001	 32.700	 99.093	  0.933
54311	  0.886	  0.607	  0.945	  2.572	 -2.309	 -9.139	 -0.010	  0.006	 -0.001	 32.700	 99.104	 -0.064
54361	  0.888	  0.606	  0.946	  2.585	 -2.358	 -9.148	  0.002	 -0.006	 -0.002	 32.700	 99.093	  0.933
54411	  0.889	  0.608	  0.945	  2.556	 -2.324	 -9.093	 -0.002	  0.001	 -0.000	 32.700	 99.108	 -0.427
54462	  0.888	  0.610	  0.945	  2.598	 -2.347	 -9.083	  0.000	 -0.005	 -0.001	 32.700	 99.104	 -0.064
54512	  0.889	  0.612	  0.946	  2.583	 -2.383	 -9.136	 -0.004	  0.006	 -0.001	 32.700	 99.108	 -0.427
54561	  0.889	  0.610	  0.944	  2.606	 -2.350	 -9.040	  0.002	  0.001	 -0.001	 32.700	 99.093	  0.933
54611	  0.887	  0.607	  0.945	  2.604	 -2.362	 -9.049	 -0.009	  0.010	  0.000	 32.700	 99.108	 -0.427
54661	  0.887	  0.614	  0.944	  2.519	 -2.360	 -9.449	 -0.002	  0.015	  0.004	 32.700	 99.104	 -0.064
54711	  0.886	  0.612	  0.946	  2.596	 -2.351	 -9.086	 -0.014	  0.005	  0.002	 32.700	 99.104	 -0.064
54761	  0.888	  0.608	  0.943	  2.606	 -2.354	 -9.104	  0.005	 -0.005	 -0.002	 32.700	 99.104	 -0.064
54811	  0.889	  0.607	  0.946	  2.594	 -2.339	 -9.098	 -0.003	  0.002	 -0.001	 32.700	 99.097	  0.570
54861	  0.887	  0.607	  0.945	  2.598	 -2.362	 -9.149	 -0.003	  0.001	 -0.001	 32.700	 99.104	 -0.064
54911	  0.887	  0.607	  0.944	  2.587	 -2.347	 -9.115	 -0.004	  0.003	  0.000	 32.700	 99.093	  0.933
54961	  0.887	  0.610	  0.944	  2.598	 -2.335	 -9.140	 -0.004	  0.002	  0.000	 32.700	 99.104	 -0.064
55011	  0.886	  0.607	  0.946	  2.585	 -2.335	 -9.092	 -0.003	  0.001	  0.001	 32.700	 99.108	 -0.427
55061	  0.887	  0.608	  0.948	  2.599	 -2.353	 -9.140	 -0.002	  0.001	 -0.000	 32.700	 99.104	 -0.064
55111	  0.887	  0.608	  0.945	  2.579	 -2.348	 -9.110	 -0.003	  0.002	 -0.001	 32.700	 99.097	  0.570
55161	  0.886	  0.609	  0.947	  2.584	 -2.339	 -9.116	 -0.002	  0.002	  0.000	 32.700	 99.104	 -0.064
55211	  0.887	  0.618	  0.946	  2.606	 -2.341	 -9.117	 -0.003	  0.003	 -0.001	 32.700	 99.115	 -1.062
55261	  0.885	  0.610	  0.946	  2.577	 -2.330	 -9.134	 -0.003	  0.002	 -0.000	 32.700	 99.108	 -0.427
55311	  0.890	  0.612	  0.946	  2.576	 -2.343	 -9.098	 -0.002	  0.001	  0.001	 32.700	 99.104	 -0.064
55361	  0.885	  0.611	  0.946	  2.610	 -2.333	 -9.090	 -0.003	  0.002	  0.000	 32.700	 99.104	 -0.064
55411	  0.889	  0.613	  0.947	  2.604	 -2.378	 -9.079	 -0.001	  0.003	  0.003	 32.700	 99.104	 -0.064
55462	  0.888	  0.616	  0.945	  2.600	 -2.435	 -9.064	  0.001	  0.002	 -0.004	 32.700	 99.108	 -0.427
55511	  0.888	  0.613	  0.946	  2.576	 -2.329	 -9.150	 -0.006	  0.002	  0.001	 32.700	 99.093	  0.933
55562	  0.887	  0.625	  0.948	  2.611	 -2.367	 -9.083	 -0.003	  0.001	 -0.002	 32.700	 99.104	 -0.064
55612	  0.889	  0.612	  0.947	  2.590	 -2.336	 -9.102	 -0.006	  0.002	  0.001	 32.700	 99.104	 -0.064
55662	  0.887	  0.617	  0.946	  2.621	 -2.348	 -9.132	 -0.002	  0.001	 -0.001	 32.700	 99.104	 -0.064
55712	  0.887	  0.615	  0.946	  2.605	 -2.378	 -9.132	 -0.003	  0.003	 -0.001	 32.700	 99.104	 -0.064
55762	  0.886	  0.618	  0.946	  2.579	 -2.332	 -9.117	 -0.004	  0.001	 -0.001	 32.700	 99.104	 -0.064
55812	  0.891	  0.621	  0.948	  2.604	 -2.335	 -9.124	 -0.003	  0.003	 -0.001	 32.700	 99.104	 -0.064
55862	  0.886	  0.614	  0.946	  2.584	 -2.327	 -9.128	 -0.004	  0.001	 -0.000	 32.700	 99.104	 -0.064
55912	  0.890	  0.616	  0.951	  2.593	 -2.349	 -9.124	 -0.002	  0.002	  0.000	 32.700	 99.104	 -0.064
55962	  0.890	  0.614	  0.946	  2.594	 -2.392	 -9.143	 -0.001	  0.003	  0.000	 32.700	 99.093	  0.933
56012	  0.893	  0.613	  0.947	  2.559	 -2.348	 -9.113	 -0.004	  0.002	  0.000	 32.700	 99.104	 -0.064
56062	  0.888	  0.617	  0.945	  2.576	 -2.370	 -9.108	 -0.004	  0.002	 -0.000	 32.700	 99.104	 -0.064
56111	  0.892	  0.618	  0.945	  2.578	 -2.350	 -9.096	 -0.003	  0.003	  0.001	 32.700	 99.115	 -1.062
56161	  0.890	  0.615	  0.947	  2.600	 -2.354	 -9.117	 -0.002	  0.003	  0.001	 32.700	 99.104	 -0.064
56211	  0.890	  0.613	  0.944	  2.573	 -2.365	 -9.135	 -0.002	  0.001	 -0.000	 32.700	 99.104	 -0.064
56261	  0.890	  0.614	  0.950	  2.571	 -2.338	 -9.088	 -0.002	  0.003	 -0.000	 32.700	 99.093	  0.933
56311	  0.891	  0.621	  0.946	  2.566	 -2.339	 -9.113	 -0.003	  0.003	 -0.001	 32.700	 99.104	 -0.064
56361	  0.891	  0.614	  0.947	  2.583	 -2.353	 -9.119	 -0.004	  0.002	  0.001	 32.700	 99.104	 -0.064
56411	  0.889	  0.618	  0.940	  2.578	 -2.336	 -9.136	 -0.004	  0.002	 -0.001	 32.700	 99.104	 -0.064
56461	  0.891	  0.619	  0.946	  2.585	 -2.332	 -9.114	 -0.003	  0.001	 -0.001	 32.700	 99.115	 -1.062
56511	  0.891	  0.616	  0.948	  2.588	 -2.335	 -9.127	 -0.004	  0.002	 -0.000	 32.700	 99.104	 -0.064
56561	  0.890	  0.619	  0.948	  2.551	 -2.347	 -9.192	 -0.013	  0.006	  0.002	 32.700	 99.104	 -0.064
56611	  0.889	  0.612	  0.943	  2.589	 -2.261	 -9.044	 -0.016	  0.008	  0.004	 32.700	 99.104	 -0.064
56661	  0.887	  0.613	  0.943	  2.609	 -2.292	 -9.143	 -0.065	  0.025	  0.013	 32.700	 99.104	 -0.064
56711	  0.890	  0.610	  0.947	  2.643	 -2.296	 -9.002	  0.000	 -0.009	 -0.004	 32.700	 99.093	  0.933
56761	  0.889	  0.613	  0.946	  2.564	 -2.325	 -9.135	 -0.003	 -0.004	 -0.003	 32.700	 99.104	 -0.064
56811	  0.888	  0.609	  0.944	  2.587	 -2.314	 -9.089	  0.009	 -0.007	 -0.005	 32.700	 99.104	 -0.064
56861	  0.888	  0.608	  0.946	  2.578	 -2.322	 -9.113	 -0.000	  0.000	 -0.000	 32.700	 99.104	 -0.064
56911	  0.888	  0.617	  0.951	  2.557	 -2.292	 -9.169	 -0.005	  0.008	  0.001	 32.700	 99.104	 -0.064
56961	  0.889	  0.616	  0.950	  2.530	 -2.279	 -9.306	 -0.033	  0.012	  0.000	 32.700	 99.093	  0.933
57011	  0.889	  0.609	  0.946	  2.561	 -2.251	 -9.122	 -0.031	  0.008	  0.006	 32.700	 99.104	 -0.064
57061	  0.886	  0.606	  0.947	  2.471	 -2.100	 -9.465	 -0.043	 -0.059	 -0.045	 32.700	 99.104	 -0.064
57111	  0.889	  0.611	  0.950	  2.531	 -2.257	 -9.242	  0.022	 -0.014	 -0.002	 32.700	 99.093	  0.933
57161	  0.886	  0.611	  0.949	  2.226	 -2.322	 -8.550	  0.172	 -0.010	  0.018	 32.700	 99.093	  0.933
57211	  0.899	  0.610	  0.934	  2.552	 -2.918	 -9.111	 -0.142	  0.171	  0.189	 32.700	 99.104	 -0.064
57262	  0.896	  0.598	  0.934	  2.560	 -2.391	 -9.156	 -0.027	  0.057	  0.041	 32.700	 99.108	 -0.427
57311	  0.896	  0.601	  0.931	  2.636	 -2.440	 -8.166	  0.052	 -0.029	 -0.007	 32.700	 99.115	 -1.062
57361	  0.895	  0.594	  0.934	  2.632	 -2.606	 -8.546	 -0.126	  0.157	  0.079	 32.700	 99.115	 -1.062
57411	  0.897	  0.597	  0.931	  2.205	 -1.989	 -8.715	  0.126	 -0.123	 -0.009	 32.700	 99.104	 -0.064
57461	  0.902	  0.597	  0.930	  2.542	 -2.430	 -9.084	 -0.044	  0.055	  0.015	 32.700	 99.104	 -0.064
57511	  0.897	  0.604	  0.931	  2.551	 -2.364	 -9.112	 -0.005	  0.005	 -0.000	 32.700	 99.104	 -0.064
57561	  0.900	  0.599	  0.932	  2.538	 -2.381	 -9.164	 -0.004	  0.001	 -0.000	 32.700	 99.088	  1.386
57611	  0.897	  0.597	  0.931	  2.531	 -2.366	 -9.153	 -0.003	  0.001	  0.001	 32.700	 99.104	 -0.064
57661	  0.898	  0.596	  0.933	  2.536	 -2.387	 -9.131	 -0.003	  0.000	 -0.000	 32.700	 99.104	 -0.064
57711	  0.898	  0.597	  0.930	  2.548	 -2.386	 -9.127	 -0.003	  0.002	  0.000	 32.700	 99.104	 -0.064
57761	  0.899	  0.599	  0.932	  2.539	 -2.362	 -9.103	 -0.003	  0.004	  0.001	 32.700	 99.104	 -0.064
57811	  0.898	  0.595	  0.928	  2.533	 -2.387	 -9.108	 -0.005	  0.003	  0.000	 32.700	 99.115	 -1.062
57861	  0.897	  0.598	  0.930	  2.552	 -2.369	 -9.126	 -0.003	  0.002	  0.000	 32.700	 99.104	 -0.064
57911	  0.900	  0.594	  0.931	  2.550	 -2.397	 -9.147	 -0.005	  0.001	 -0.001	 32.700	 99.104	 -0.064
57961	  0.898	  0.597	  0.928	  2.522	 -2.365	 -9.126	 -0.003	  0.002	  0.002	 32.700	 99.104	 -0.064
58011	  0.898	  0.600	  0.932	  2.542	 -2.390	 -9.121	 -0.003	  0.002	 -0.001	 32.700	 99.104	 -0.064
58062	  0.899	  0.596	  0.929	  2.528	 -2.376	 -9.100	 -0.004	  0.003	 -0.000	 32.700	 99.093	  0.933
58111	  0.899	  0.596	  0.934	  2.566	 -2.384	 -9.139	 -0.004	  0.002	 -0.000	 32.700	 99.093	  0.933
58161	  0.899	  0.599	  0.930	  2.524	 -2.375	 -9.082	 -0.004	  0.003	 -0.001	 32.700	 99.104	 -0.064
58211	  0.898	  0.597	  0.933	  2.528	 -2.399	 -9.167	 -0.003	  0.002	  0.001	 32.700	 99.104	 -0.064
58261	  0.898	  0.597	  0.926	  2.535	 -2.363	 -9.136	 -0.004	  0.005	 -0.001	 32.700	 99.104	 -0.064
58311	  0.900	  0.596	  0.933	  2.548	 -2.380	 -9.126	 -0.003	  0.002	  0.001	 32.700	 99.104	 -0.064
58361	  0.898	  0.596	  0.932	  2.538	 -2.379	 -9.081	 -0.003	  0.001	 -0.000	 32.700	 99.093	  0.933
58411	  0.897	  0.597	  0.928	  2.532	 -2.380	 -9.133	 -0.003	  0.004	 -0.000	 32.700	 99.115	 -1.062
58461	  0.899	  0.602	  0.932	  2.554	 -2.352	 -9.101	 -0.002	  0.002	 -0.001	 32.700	 99.104	 -0.064
58511	  0.897	  0.600	  0.927	  2.532	 -2.405	 -9.153	 -0.004	  0.003	 -0.000	 32.700	 99.100	  0.298
58561	  0.899	  0.595	  0.930	  2.519	 -2.353	 -9.080	 -0.005	  0.004	  0.002	 32.700	 99.104	 -0.064
58612	  0.900	  0.596	  0.929	  2.551	 -2.398	 -9.156	 -0.001	  0.001	  0.001	 32.700	 99.093	  0.933
58661	  0.897	  0.596	  0.927	  2.533	 -2.344	 -9.112	 -0.003	  0.000	  0.000	 32.700	 99.111	 -0.700
58712	  0.900	  0.596	  0.932	  2.552	 -2.380	 -9.101	 -0.002	  0.003	 -0.000	 32.700	 99.104	 -0.064
58761	  0.898	  0.600	  0.931	  2.537	 -2.365	 -9.092	 -0.002	  0.003	 -0.001	 32.700	 99.093	  0.933
58812	  0.898	  0.598	  0.930	  2.549	 -2.384	 -9.085	 -0.004	  0.003	  0.000	 32.700	 99.104	 -0.064
58862	  0.900	  0.595	  0.931	  2.533	 -2.371	 -9.136	 -0.004	  0.003	 -0.000	 32.700	 99.104	 -0.064
58912	  0.897	  0.597	  0.931	  2.552	 -2.366	 -9.160	 -0.004	  0.004	 -0.000	 32.700	 99.104	 -0.064
58962	  0.896	  0.594	  0.930	  2.648	 -1.878	 -8.005	  0.008	  0.040	  0.012	 32.700	 99.115	 -1.062
59012	  0.899	  0.597	  0.930	  2.600	 -2.420	 -9.072	 -0.005	  0.003	  0.001	 32.700	 99.104	 -0.064
59062	  0.897	  0.594	  0.930	  2.501	 -2.400	 -9.179	 -0.003	  0.001	 -0.001	 32.700	 99.104	 -0.064
59112	  0.897	  0.594	  0.931	  2.567	 -2.401	 -9.122	 -0.004	  0.004	 -0.000	 32.700	 99.093	  0.933
59162	  0.896	  0.598	  0.928	  2.550	 -2.387	 -9.131	 -0.002	 -0.000	 -0.002	 32.700	 99.093	  0.933
59212	  0.898	  0.595	  0.930	  2.537	 -2.267	 -8.993	 -0.007	  0.007	  0.001	 32.700	 99.115	 -1.062
59262	  0.898	  0.600	  0.930	  2.514	 -2.421	 -9.177	 -0.006	  0.000	 -0.001	 32.700	 99.104	 -0.064
59312	  0.898	  0.597	  0.930	  2.418	 -2.177	 -9.067	  0.004	  0.007	 -0.000	 32.700	 99.104	 -0.064
59362	  0.897	  0.598	  0.931	  2.588	 -2.371	 -9.027	 -0.004	 -0.001	 -0.000	 32.700	 99.104	 -0.064
59412	  0.896	  0.598	  0.927	  2.537	 -2.409	 -9.204	 -0.001	  0.001	  0.000	 32.700	 99.104	 -0.064
59462	  0.897	  0.595	  0.928	  2.532	 -2.372	 -9.062	 -0.003	  0.003	 -0.000	 32.700	 99.115	 -1.062
59512	  0.899	  0.599	  0.931	  2.520	 -2.379	 -9.126	 -0.004	  0.002	 -0.000	 32.700	 99.088	  1.386
59562	  0.899	  0.597	  0.930	  2.526	 -2.364	 -9.118	 -0.004	  0.003	  0.000	 32.700	 99.104	 -0.064
59612	  0.898	  0.599	  0.931	  2.541	 -2.399	 -9.185	 -0.002	 -0.000	 -0.000	 32.700	 99.093	  0.933
59662	  0.898	  0.599	  0.931	  2.529	 -2.414	 -9.287	 -0.009	  0.006	 -0.000	 32.700	 99.104	 -0.064
59712	  0.898	  0.598	  0.927	  2.555	 -2.381	 -9.108	 -0.000	  0.001	  0.001	 32.700	 99.104	 -0.064
59762	  0.897	  0.597	  0.928	  2.532	 -2.356	 -9.146	 -0.003	  0.003	 -0.001	 32.700	 99.104	 -0.064
59812	  0.899	  0.595	  0.929	  2.541	 -2.392	 -9.133	 -0.006	  0.004	 -0.001	 32.700	 99.115	 -1.062
59862	  0.897	  0.597	  0.931	  2.550	 -2.362	 -9.062	 -0.003	  0.003	 -0.000	 32.700	 99.104	 -0.064
59912	  0.899	  0.594	  0.929	  2.544	 -2.378	 -9.158	 -0.004	  0.001	  0.000	 32.700	 99.104	 -0.064
59962	  0.896	  0.597	  0.925	  2.524	 -2.365	 -9.112	 -0.003	  0.003	  0.000	 32.700	 99.104	 -0.064
60012	  0.899	  0.596	  0.932	  2.542	 -2.367	 -9.111	 -0.003	  0.001	 -0.000	 32.700	 99.104	 -0.064
60062	  0.898	  0.601	  0.928	  2.527	 -2.409	 -9.116	 -0.002	  0.002	  0.002	 32.700	 99.093	  0.933
60112	  0.898	  0.597	  0.932	  2.554	 -2.416	 -9.142	 -0.002	  0.000	 -0.001	 32.700	 99.104	 -0.064
60162	  0.897	  0.604	  0.928	  2.542	 -2.374	 -9.125	 -0.004	  0.003	  0.000	 32.700	 99.100	  0.298
60212	  0.898	  0.597	  0.927	  2.534	 -2.391	 -9.118	 -0.004	  0.003	  0.000	 32.700	 99.104	 -0.064
60262	  0.899	  0.596	  0.931	  2.537	 -2.371	 -9.149	 -0.005	  0.004	 -0.000	 32.700	 99.104	 -0.064
60312	  0.898	  0.599	  0.928	  2.527	 -2.377	 -9.171	 -0.002	  0.001	 -0.000	 32.700	 99.088	  1.386
60362	  0.897	  0.596	  0.928	  2.555	 -2.334	 -9.059	 -0.009	  0.010	 -0.002	 32.700	 99.104	 -0.064
60412	  0.898	  0.597	  0.927	  2.541	 -2.406	 -9.195	 -0.004	  0.004	 -0.001	 32.700	 99.104	 -0.064
60462	  0.897	  0.592	  0.930	  2.513	 -2.334	 -8.936	 -0.012	  0.008	  0.003	 32.700	 99.093	  0.933
60512	  0.898	  0.598	  0.933	  2.588	 -2.405	 -9.140	  0.011	 -0.013	  0.004	 32.700	 99.115	 -1.062
60562	  0.898	  0.594	  0.932	  2.538	 -2.414	 -9.229	 -0.006	 -0.001	 -0.001	 32.700	 99.115	 -1.062
60612	  0.897	  0.598	  0.927	  2.534	 -2.356	 -9.096	 -0.002	  0.003	  0.001	 32.700	 99.104	 -0.064
60662	  0.896	  0.596	  0.932	  2.551	 -2.337	 -9.083	 -0.001	 -0.001	  0.000	 32.700	 99.104	 -0.064
60712	  0.898	  0.598	  0.930	  2.538	 -2.366	 -9.175	 -0.005	  0.004	  0.000	 32.700	 99.111	 -0.700
60762	  0.899	  0.594	  0.933	  2.549	 -2.404	 -9.100	 -0.004	  0.004	 -0.000	 32.700	 99.093	  0.933
60812	  0.899	  0.597	  0.932	  2.541	 -2.375	 -9.121	 -0.004	  0.001	 -0.000	 32.700	 99.093	  0.933
60862	  0.898	  0.599	  0.932	  2.516	 -2.390	 -9.132	 -0.004	  0.003	 -0.001	 32.700	 99.104	 -0.064
60912	  0.895	  0.594	  0.929	  2.536	 -2.337	 -9.082	 -0.003	  0.003	  0.001	 32.700	 99.104	 -0.064
60962	  0.898	  0.598	  0.932	  2.547	 -2.383	 -9.103	 -0.004	  0.001	 -0.000	 32.700	 99.104	 -0.064
61012	  0.900	  0.598	  0.932	  2.535	 -2.062	 -8.837	  0.002	 -0.002	  0.005	 32.700	 99.104	 -0.064
61062	  0.897	  0.596	  0.925	  2.565	 -2.421	 -9.171	 -0.009	  0.006	  0.001	 32.700	 99.100	  0.298
61112	  0.897	  0.594	  0.928	  2.558	 -2.362	 -9.074	 -0.002	  0.001	 -0.001	 32.700	 99.093	  0.933
61162	  0.896	  0.601	  0.928	  2.553	 -2.379	 -9.173	 -0.005	  0.002	 -0.000	 32.700	 99.104	 -0.064
61212	  0.897	  0.596	  0.933	  2.538	 -2.363	 -9.135	 -0.004	  0.003	  0.000	 32.700	 99.100	  0.298
61262	  0.898	  0.597	  0.930	  2.531	 -2.387	 -9.146	 -0.004	  0.002	 -0.001	 32.700	 99.104	 -0.064
61312	  0.899	  0.595	  0.933	  2.436	 -2.354	 -9.281	 -0.023	  0.006	  0.000	 32.700	 99.104	 -0.064
61362	  0.898	  0.598	  0.930	  2.566	 -2.376	 -9.053	 -0.007	  0.008	 -0.002	 32.700	 99.104	 -0.064
61412	  0.898	  0.598	  0.930	  2.574	 -2.401	 -9.113	 -0.006	 -0.004	  0.000	 32.700	 99.104	 -0.064
61462	  0.898	  0.593	  0.930	  2.391	 -2.362	 -8.997	 -0.011	  0.008	  0.000	 32.700	 99.115	 -1.062
61512	  0.897	  0.596	  0.927	  2.607	 -2.454	 -9.111	  0.008	 -0.011	  0.002	 32.700	 99.115	 -1.062
61562	  0.899	  0.597	  0.930	  2.537	 -2.379	 -9.167	 -0.004	  0.004	 -0.000	 32.700	 99.104	 -0.064
61612	  0.896	  0.601	  0.926	  2.557	 -2.382	 -9.008	 -0.000	  0.003	  0.000	 32.700	 99.104	 -0.064
61662	  0.898	  0.601	  0.933	  2.549	 -2.374	 -9.100	 -0.002	  0.000	  0.000	 32.700	 99.104	 -0.064
61712	  0.898	  0.594	  0.931	  2.542	 -2.363	 -9.164	 -0.004	  0.002	 -0.001	 32.700	 99.108	 -0.427
61762	  0.899	  0.595	  0.930	  2.553	 -2.385	 -9.115	 -0.004	  0.004	  0.000	 32.700	 99.115	 -1.062
61812	  0.896	  0.596	  0.931	  2.539	 -2.371	 -9.093	 -0.003	  0.001	 -0.000	 32.700	 99.104	 -0.064
61862	  0.896	  0.593	  0.932	  2.531	 -2.391	 -9.105	 -0.005	  0.003	 -0.000	 32.700	 99.104	 -0.064
61912	  0.897	  0.596	  0.931	  2.536	 -2.363	 -9.105	 -0.004	  0.003	  0.000	 32.700	 99.104	 -0.064
61962	  0.898	  0.595	  0.927	  2.584	 -2.369	 -9.031	 -0.010	  0.013	 -0.001	 32.700	 99.104	 -0.064
62012	  0.898	  0.592	  0.932	  2.552	 -2.414	 -9.156	 -0.003	  0.003	 -0.001	 32.700	 99.104	 -0.064
62062	  0.895	  0.597	  0.931	  2.547	 -2.376	 -9.098	 -0.001	  0.001	  0.000	 32.700	 99.115	 -1.062
62111	  0.898	  0.596	  0.930	  2.537	 -2.384	 -9.140	 -0.004	  0.002	  0.001	 32.700	 99.115	 -1.062
62161	  0.897	  0.596	  0.927	  2.521	 -2.360	 -9.187	 -0.004	  0.002	  0.001	 32.700	 99.108	 -0.427
62211	  0.895	  0.601	  0.929	  2.494	 -2.290	 -8.845	 -0.002	 -0.001	  0.004	 32.700	 99.115	 -1.062
62261	  0.898	  0.600	  0.930	  2.532	 -2.048	 -8.418	 -0.045	  0.063	  0.002	 32.700	 99.115	 -1.062
62311	  0.897	  0.601	  0.932	  2.663	 -2.347	 -8.731	  0.028	 -0.008	  0.002	 32.700	 99.093	  0.933
62361	  0.899	  0.596	  0.932	  2.494	 -2.572	 -9.599	 -0.008	 -0.013	  0.000	 32.700	 99.115	 -1.062
62411	  0.898	  0.598	  0.928	  2.507	 -2.292	 -8.962	  0.001	  0.007	 -0.001	 32.700	 99.104	 -0.064
62461	  0.896	  0.594	  0.931	  2.645	 -2.308	 -8.973	  0.002	 -0.002	 -0.000	 32.700	 99.127	 -2.150
62511	  0.896	  0.596	  0.930	  2.519	 -2.385	 -9.205	 -0.007	  0.001	  0.000	 32.700	 99.104	 -0.064
62561	  0.900	  0.593	  0.930	  2.502	 -2.382	 -9.195	 -0.007	  0.006	 -0.001	 32.700	 99.104	 -0.064
62611	  0.899	  0.602	  0.931	  2.540	 -2.363	 -9.128	 -0.002	  0.002	 -0.000	 32.700	 99.104	 -0.064
62661	  0.898	  0.597	  0.931	  2.533	 -2.408	 -9.148	 -0.002	  0.002	  0.000	 32.700	 99.104	 -0.064
62711	  0.898	  0.595	  0.928	  2.526	 -2.388	 -9.129	 -0.006	  0.005	 -0.000	 32.700	 99.104	 -0.064
62761	  0.899	  0.594	  0.930	  2.530	 -2.362	 -9.096	 -0.001	  0.000	  0.001	 32.700	 99.100	  0.298
62811	  0.899	  0.595	  0.931	  2.565	 -2.924	 -9.533	  0.092	 -0.071	  0.024	 32.700	 99.115	 -1.062
62861	  0.899	  0.592	  0.930	  2.722	 -2.527	 -9.286	 -0.011	  0.014	  0.019	 32.700	 99.093	  0.933
62911	  0.899	  0.591	  0.931	  2.505	 -2.333	 -9.186	 -0.012	  0.007	  0.001	 32.700	 99.104	 -0.064
62961	  0.899	  0.599	  0.930	  2.550	 -2.396	 -9.130	 -0.005	  0.003	  0.000	 32.700	 99.115	 -1.062
63011	  0.899	  0.592	  0.932	  2.575	 -2.400	 -9.144	 -0.008	  0.006	  0.000	 32.700	 99.104	 -0.064
63061	  0.897	  0.597	  0.928	  2.566	 -2.464	 -9.162	  0.017	 -0.014	 -0.014	 32.700	 99.104	 -0.064
63111	  0.898	  0.593	  0.932	  2.553	 -2.446	 -9.152	  0.001	 -0.004	 -0.025	 32.700	 99.104	 -0.064
63161	  0.898	  0.601	  0.930	  2.531	 -2.356	 -9.110	  0.011	 -0.010	 -0.044	 32.700	 99.104	 -0.064
63211	  0.897	  0.601	  0.930	  2.500	 -2.323	 -9.143	  0.007	 -0.010	 -0.035	 32.700	 99.104	 -0.064
63261	  0.899	  0.604	  0.927	  2.477	 -2.826	 -8.897	 -0.004	  0.012	 -0.022	 32.700	 99.093	  0.933
63311	  0.896	  0.610	  0.932	  2.565	 -2.331	 -8.960	  0.021	 -0.019	 -0.084	 32.700	 99.104	 -0.064
63361	  0.895	  0.614	  0.929	  2.508	 -2.292	 -9.174	  0.013	 -0.015	 -0.073	 32.700	 99.104	 -0.064
63411	  0.895	  0.620	  0.930	  2.563	 -2.264	 -9.162	  0.021	 -0.020	 -0.083	 32.700	 99.093	  0.933
63461	  0.894	  0.635	  0.931	  2.629	 -2.454	 -9.052	  0.029	 -0.029	 -0.122	 32.700	 99.104	 -0.064
63511	  0.894	  0.639	  0.932	  2.391	 -2.227	 -9.160	  0.025	 -0.024	 -0.101	 32.700	 99.093	  0.933
63561	  0.893	  0.652	  0.937	  2.436	 -2.305	 -9.192	  0.004	 -0.008	 -0.031	 32.700	 99.104	 -0.064
63612	  0.892	  0.646	  0.925	  2.531	 -2.360	 -9.110	 -0.003	  0.003	 -0.001	 32.700	 99.115	 -1.062
63661	  0.892	  0.647	  0.932	  2.528	 -2.380	 -9.135	 -0.002	  0.002	 -0.000	 32.700	 99.104	 -0.064
63712	  0.895	  0.647	  0.936	  2.529	 -2.378	 -9.131	 -0.002	  0.003	 -0.000	 32.700	 99.104	 -0.064
63761	  0.894	  0.647	  0.938	  2.553	 -2.383	 -9.120	 -0.005	  0.003	 -0.000	 32.700	 99.104	 -0.064
63811	  0.892	  0.644	  0.931	  2.521	 -2.378	 -9.161	 -0.003	  0.000	  0.000	 32.700	 99.111	 -0.700
63861	  0.892	  0.645	  0.935	  2.546	 -2.379	 -9.146	 -0.003	  0.002	 -0.000	 32.700	 99.104	 -0.064
63911	  0.893	  0.647	  0.939	  2.337	 -2.273	 -9.032	  0.002	  0.005	 -0.026	 32.700	 99.115	 -1.062
63961	  0.893	  0.650	  0.936	  2.457	 -2.411	 -9.059	  0.005	 -0.004	 -0.046	 32.700	 99.100	  0.298
64011	  0.892	  0.653	  0.937	  2.516	 -2.391	 -9.137	 -0.002	 -0.001	 -0.000	 32.700	 99.104	 -0.064
64062	  0.893	  0.652	  0.933	  2.525	 -2.360	 -9.069	 -0.004	  0.003	 -0.001	 32.700	 99.104	 -0.064
64111	  0.892	  0.653	  0.936	  2.526	 -2.379	 -9.127	 -0.002	  0.001	  0.001	 32.700	 99.093	  0.933
64162	  0.895	  0.652	  0.937	  2.526	 -2.412	 -9.013	 -0.005	  0.002	 -0.002	 32.700	 99.111	 -0.700
64211	  0.893	  0.656	  0.940	  2.509	 -2.525	 -9.420	  0.001	 -0.005	 -0.000	 32.700	 99.104	 -0.064
64262	  0.893	  0.650	  0.938	  2.522	 -2.336	 -9.119	  0.001	  0.001	  0.000	 32.700	 99.104	 -0.064
64312	  0.891	  0.654	  0.937	  2.569	 -2.375	 -9.115	 -0.002	  0.001	  0.001	 32.700	 99.104	 -0.064
64361	  0.891	  0.652	  0.937	  2.540	 -2.393	 -9.167	 -0.002	  0.001	  0.001	 32.700	 99.104	 -0.064
64412	  0.895	  0.656	  0.938	  2.507	 -2.304	 -9.196	 -0.002	  0.002	  0.002	 32.700	 99.088	  1.386
64462	  0.893	  0.652	  0.936	  2.571	 -2.317	 -9.061	 -0.004	  0.006	  0.002	 32.700	 99.104	 -0.064
64512	  0.893	  0.651	  0.936	  2.598	 -2.309	 -8.819	 -0.005	  0.005	 -0.001	 32.700	 99.115	 -1.062
64562	  0.895	  0.654	  0.939	  2.549	 -2.394	 -9.141	 -0.004	 -0.001	 -0.000	 32.700	 99.104	 -0.064
64612	  0.891	  0.653	  0.934	  2.498	 -2.366	 -9.182	 -0.004	  0.005	 -0.002	 32.700	 99.104	 -0.064
64662	  0.893	  0.651	  0.938	  2.531	 -2.381	 -9.114	 -0.002	  0.003	  0.001	 32.700	 99.104	 -0.064
64712	  0.892	  0.657	  0.937	  2.514	 -2.440	 -9.280	  0.004	 -0.000	  0.001	 32.700	 99.104	 -0.064
64762	  0.893	  0.652	  0.933	  2.522	 -2.317	 -9.086	 -0.004	  0.004	 -0.000	 32.700	 99.104	 -0.064
64812	  0.893	  0.651	  0.935	  2.528	 -2.376	 -9.134	 -0.003	  0.001	  0.000	 32.700	 99.104	 -0.064
64862	  0.895	  0.654	  0.940	  2.556	 -2.345	 -9.105	 -0.002	  0.003	  0.001	 32.700	 99.093	  0.933
64912	  0.892	  0.650	  0.934	  2.504	 -2.355	 -9.090	 -0.013	  0.011	  0.004	 32.700	 99.088	  1.386
64962	  0.892	  0.653	  0.939	  2.426	 -2.509	 -9.500	 -0.012	  0.005	  0.000	 32.700	 99.104	 -0.064
65012	  0.893	  0.653	  0.941	  2.522	 -2.251	 -8.951	 -0.019	  0.046	  0.013	 32.700	 99.100	  0.298
65062	  0.895	  0.650	  0.935	  2.673	 -2.399	 -9.024	  0.018	 -0.011	  0.001	 32.700	 99.115	 -1.062
65112	  0.894	  0.649	  0.939	  2.527	 -2.363	 -9.141	 -0.008	  0.003	  0.000	 32.700	 99.093	  0.933
65162	  0.893	  0.657	  0.937	  2.527	 -2.321	 -9.062	 -0.010	  0.010	 -0.001	 32.700	 99.093	  0.933
65212	  0.895	  0.647	  0.939	  2.539	 -2.390	 -9.133	 -0.004	  0.000	 -0.001	 32.700	 99.115	 -1.062
65262	  0.893	  0.656	  0.936	  2.515	 -2.414	 -9.222	 -0.005	  0.002	 -0.001	 32.700	 99.104	 -0.064
65312	  0.891	  0.652	  0.937	  2.672	 -1.408	 -8.851	 -0.039	  0.041	 -0.085	 32.700	 99.115	 -1.062
65362	  0.895	  0.657	  0.940	  2.647	 -2.370	 -8.887	  0.001	  0.002	 -0.005	 32.700	 99.134	 -2.785
65412	  0.892	  0.655	  0.939	  2.563	 -2.463	 -9.224	  0.001	 -0.010	  0.000	 32.700	 99.138	 -3.147
65462	  0.896	  0.656	  0.939	  2.507	 -2.351	 -9.082	 -0.005	  0.008	 -0.001	 32.700	 99.104	 -0.064
65512	  0.893	  0.656	  0.942	  2.559	 -2.363	 -9.080	 -0.001	  0.003	  0.000	 32.700	 99.093	  0.933
65562	  0.893	  0.653	  0.941	  2.547	 -2.364	 -9.153	 -0.006	  0.001	 -0.000	 32.700	 99.104	 -0.064
65612	  0.895	  0.659	  0.940	  2.512	 -2.378	 -9.146	 -0.003	  0.005	  0.000	 32.700	 99.104	 -0.064
65662	  0.895	  0.656	  0.941	  2.551	 -2.359	 -9.084	 -0.002	  0.002	 -0.000	 32.700	 99.104	 -0.064
65712	  0.892	  0.655	  0.938	  2.524	 -2.355	 -9.113	 -0.001	  0.003	 -0.000	 32.700	 99.122	 -1.697
65762	  0.895	  0.654	  0.941	  2.581	 -2.366	 -9.037	  0.002	 -0.002	 -0.002	 32.700	 99.195	 -8.312
65812	  0.892	  0.656	  0.938	  2.506	 -2.368	 -9.143	 -0.003	  0.001	  0.001	 32.700	 99.240	 -12.387
65862	  0.893	  0.656	  0.941	  2.548	 -2.359	 -9.109	 -0.002	  0.001	 -0.000	 32.700	 99.285	 -16.460
65912	  0.895	  0.657	  0.941	  2.527	 -2.399	 -9.241	 -0.006	  0.002	 -0.000	 32.700	 99.315	 -19.174
65962	  0.895	  0.659	  0.942	  2.541	 -2.384	 -9.117	 -0.000	  0.005	 -0.000	 32.700	 99.285	 -16.460
66012	  0.896	  0.657	  0.940	  2.559	 -2.363	 -9.146	  0.004	  0.006	  0.001	 32.700	 99.274	 -15.464
66062	  0.894	  0.658	  0.942	  2.568	 -2.411	 -9.155	 -0.008	  0.010	  0.004	 32.700	 99.240	 -12.387
66112	  0.895	  0.655	  0.939	  2.483	 -2.349	 -9.199	 -0.005	  0.006	 -0.003	 32.700	 99.206	 -9.308
66162	  0.893	  0.655	  0.941	  2.547	 -2.386	 -9.029	 -0.007	  0.010	 -0.002	 32.700	 99.195	 -8.312
66212	  0.893	  0.661	  0.941	  2.510	 -2.516	 -9.355	 -0.003	 -0.011	 -0.003	 32.700	 99.138	 -3.147
66262	  0.896	  0.656	  0.937	  2.548	 -2.282	 -9.018	 -0.002	  0.004	 -0.003	 32.700	 99.149	 -4.145
66312	  0.893	  0.658	  0.943	  2.728	 -2.819	 -8.839	  0.034	  0.010	 -0.015	 32.700	 99.432	 -29.749
66362	  0.890	  0.662	  0.937	  2.107	 -0.648	 -9.644	 -0.046	  0.014	 -0.010	 32.700	 99.693	 -53.286
66412	  0.893	  0.655	  0.944	  2.616	 -2.677	 -9.208	  0.019	 -0.009	 -0.010	 32.700	 99.772	 -60.397
66462	  0.894	  0.661	  0.940	  2.575	 -2.432	 -9.306	 -0.005	  0.004	 -0.002	 32.700	 99.783	 -61.386
66512	  0.894	  0.660	  0.942	  2.371	 -2.029	 -9.782	 -0.005	 -0.006	  0.005	 32.700	 99.795	 -62.465
