Time	 MagX	 MagY	 MagZ	 AccelX	 AccelY	 AccelZ	 Yaw	 Pitch	 Roll	 Temperature	 Pressure	 Altitude
15244	  0.816	  0.411	  0.784	  0.082	 -0.056	 -9.769	 -0.004	  0.002	  0.000	 32.600	 99.110	 -99999.000
15294	  0.818	  0.416	  0.781	  0.090	 -0.047	 -9.771	 -0.004	  0.003	 -0.000	 32.600	 99.094	 -99999.000
15344	  0.814	  0.422	  0.781	  0.072	 -0.042	 -9.749	 -0.003	  0.002	  0.000	 32.600	 99.106	 -99999.000
15393	  0.815	  0.415	  0.777	  0.086	 -0.034	 -9.760	 -0.003	  0.003	 -0.001	 32.600	 99.110	 -99999.000
15444	  0.816	  0.418	  0.782	  0.099	 -0.028	 -9.755	 -0.004	  0.001	 -0.000	 32.600	 99.099	 -99999.000
15494	  0.815	  0.415	  0.783	  0.100	 -0.049	 -9.720	 -0.004	  0.004	  0.000	 32.600	 99.110	 -99999.000
15544	  0.813	  0.415	  0.779	  0.090	 -0.015	 -9.810	 -0.003	  0.001	  0.001	 32.600	 99.087	 -99999.000
15594	  0.815	  0.414	  0.778	  0.102	 -0.075	 -9.767	 -0.004	  0.003	  0.002	 32.600	 99.110	 -99999.000
15644	  0.813	  0.420	  0.781	  0.076	 -0.066	 -9.790	 -0.003	  0.002	  0.000	 32.600	 99.110	 -99999.000
15694	  0.814	  0.413	  0.782	  0.082	 -0.039	 -9.786	 -0.004	  0.002	  0.000	 32.600	 99.099	 -99999.000
15744	  0.815	  0.416	  0.780	  0.095	 -0.016	 -9.766	 -0.004	  0.002	 -0.000	 32.600	 99.110	 -99999.000
15794	  0.817	  0.413	  0.782	  0.099	 -0.046	 -9.755	 -0.004	  0.004	 -0.000	 32.600	 99.110	 -99999.000
15844	  0.814	  0.415	  0.779	  0.123	 -0.054	 -9.752	 -0.004	  0.004	  0.001	 32.600	 99.099	 -99999.000
15894	  0.816	  0.414	  0.784	  0.099	 -0.051	 -9.767	 -0.003	  0.003	  0.001	 32.600	 99.099	 -99999.000
15944	  0.815	  0.415	  0.785	  0.111	 -0.041	 -9.741	 -0.003	  0.004	  0.001	 32.600	 99.110	 -99999.000
15994	  0.816	  0.415	  0.779	  0.082	 -0.051	 -9.753	 -0.003	  0.002	  0.000	 32.600	 99.110	 -99999.000
16044	  0.815	  0.413	  0.779	  0.076	 -0.012	 -9.799	 -0.003	  0.003	 -0.000	 32.600	 99.103	 -99999.000
16094	  0.814	  0.418	  0.785	  0.083	 -0.038	 -9.729	 -0.003	  0.003	 -0.000	 32.600	 99.099	 -99999.000
16144	  0.814	  0.418	  0.780	  0.080	 -0.046	 -9.751	 -0.002	  0.004	 -0.000	 32.600	 99.099	 -99999.000
16194	  0.814	  0.422	  0.785	  0.103	 -0.033	 -9.778	 -0.005	  0.002	 -0.001	 32.600	 99.106	 -99999.000
16244	  0.814	  0.415	  0.785	  0.099	 -0.048	 -9.748	 -0.004	  0.003	  0.000	 32.600	 99.099	 -99999.000
16294	  0.812	  0.415	  0.781	  0.095	 -0.043	 -9.752	 -0.002	  0.003	 -0.000	 32.600	 99.099	 -99999.000
16344	  0.814	  0.414	  0.780	  0.089	 -0.028	 -9.795	 -0.004	  0.003	  0.001	 32.600	 99.110	 -99999.000
16394	  0.815	  0.413	  0.776	  0.102	 -0.058	 -9.766	 -0.003	  0.004	  0.000	 32.600	 99.099	 -99999.000
16444	  0.816	  0.420	  0.784	  0.090	 -0.013	 -9.763	 -0.004	  0.002	  0.001	 32.600	 99.099	 -99999.000
16494	  0.814	  0.419	  0.783	  0.087	 -0.030	 -9.772	 -0.004	  0.003	 -0.001	 32.600	 99.099	 -99999.000
16543	  0.813	  0.416	  0.783	  0.090	 -0.044	 -9.747	 -0.002	  0.003	 -0.001	 32.600	 99.110	 -99999.000
16593	  0.816	  0.417	  0.784	  0.094	 -0.045	 -9.784	 -0.003	  0.003	 -0.000	 32.600	 99.110	 -99999.000
16643	  0.816	  0.418	  0.782	  0.114	 -0.046	 -9.765	 -0.003	  0.004	  0.000	 32.600	 99.106	 -99999.000
16693	  0.814	  0.415	  0.782	  0.091	 -0.031	 -9.748	 -0.002	  0.004	  0.000	 32.600	 99.094	 -99999.000
16743	  0.813	  0.415	  0.782	  0.120	 -0.037	 -9.750	 -0.004	  0.004	 -0.000	 32.600	 99.099	 -99999.000
16793	  0.813	  0.414	  0.775	  0.075	 -0.029	 -9.782	 -0.002	  0.002	  0.000	 32.600	 99.110	 -99999.000
16843	  0.816	  0.415	  0.776	  0.086	 -0.036	 -9.762	 -0.002	  0.001	  0.001	 32.600	 99.099	 -99999.000
16893	  0.815	  0.413	  0.783	  0.101	 -0.050	 -9.778	 -0.003	  0.003	 -0.000	 32.600	 99.110	 -99999.000
16943	  0.812	  0.413	  0.783	  0.103	 -0.043	 -9.773	 -0.004	  0.002	  0.001	 32.600	 99.099	 -99999.000
16993	  0.817	  0.418	  0.783	  0.097	 -0.063	 -9.740	 -0.003	  0.002	  0.002	 32.600	 99.099	 -99999.000
17043	  0.814	  0.412	  0.778	  0.100	 -0.042	 -9.772	 -0.002	  0.004	 -0.001	 32.600	 99.087	 -99999.000
17093	  0.812	  0.416	  0.781	  0.082	 -0.041	 -9.743	 -0.004	  0.004	  0.000	 32.600	 99.099	 -99999.000
17143	  0.814	  0.414	  0.783	  0.099	 -0.055	 -9.734	 -0.003	  0.003	  0.001	 32.600	 99.110	 -99999.000
17193	  0.815	  0.415	  0.783	  0.098	 -0.032	 -9.754	 -0.003	  0.002	 -0.001	 32.600	 99.099	 -99999.000
17243	  0.816	  0.415	  0.782	  0.092	 -0.035	 -9.728	 -0.005	  0.002	 -0.001	 32.600	 99.099	 -99999.000
17293	  0.812	  0.413	  0.779	  0.085	 -0.039	 -9.748	 -0.004	  0.003	 -0.001	 32.600	 99.099	 -99999.000
17343	  0.815	  0.413	  0.775	  0.089	 -0.030	 -9.742	 -0.002	  0.002	  0.000	 32.600	 99.099	 -99999.000
17393	  0.813	  0.413	  0.779	  0.098	 -0.021	 -9.783	 -0.004	  0.001	  0.000	 32.600	 99.099	 -99999.000
17443	  0.813	  0.413	  0.783	  0.099	 -0.038	 -9.730	 -0.002	  0.003	  0.001	 32.600	 99.099	 -99999.000
17493	  0.814	  0.418	  0.783	  0.091	 -0.033	 -9.765	 -0.003	  0.002	  0.001	 32.600	 99.110	 -99999.000
17543	  0.813	  0.415	  0.779	  0.099	 -0.030	 -9.792	 -0.003	  0.003	 -0.000	 32.600	 99.110	 -99999.000
17593	  0.815	  0.413	  0.782	  0.103	 -0.037	 -9.749	 -0.004	  0.004	 -0.000	 32.600	 99.099	 -99999.000
17643	  0.816	  0.415	  0.782	  0.087	 -0.068	 -9.761	 -0.003	  0.002	 -0.000	 32.600	 99.099	 -99999.000
17693	  0.814	  0.412	  0.782	  0.090	 -0.048	 -9.768	 -0.004	  0.003	  0.000	 32.600	 99.110	 -99999.000
17743	  0.815	  0.413	  0.784	  0.090	 -0.043	 -9.738	 -0.003	  0.003	  0.000	 32.600	 99.099	 -99999.000
17794	  0.814	  0.414	  0.783	  0.076	 -0.043	 -9.778	 -0.003	  0.003	 -0.000	 32.600	 99.099	 -99999.000
17843	  0.812	  0.414	  0.780	  0.111	 -0.027	 -9.786	 -0.003	  0.003	  0.000	 32.600	 99.099	 -99999.000
17893	  0.816	  0.415	  0.783	  0.102	 -0.034	 -9.739	 -0.002	  0.003	  0.000	 32.600	 99.099	 -99999.000
17943	  0.813	  0.421	  0.780	  0.110	 -0.060	 -9.757	 -0.003	  0.002	 -0.000	 32.600	 99.094	 -99999.000
17993	  0.814	  0.411	  0.783	  0.098	 -0.041	 -9.757	 -0.002	  0.002	  0.001	 32.600	 99.099	 -99999.000
18043	  0.815	  0.415	  0.782	  0.092	 -0.057	 -9.754	 -0.003	  0.002	  0.001	 32.600	 99.099	 -99999.000
18093	  0.814	  0.416	  0.778	  0.094	 -0.038	 -9.735	 -0.004	  0.002	  0.001	 32.600	 99.110	 -99999.000
18143	  0.813	  0.413	  0.782	  0.088	 -0.043	 -9.793	 -0.004	  0.003	  0.000	 32.600	 99.099	 -99999.000
18193	  0.815	  0.415	  0.779	  0.106	 -0.035	 -9.748	 -0.002	  0.002	  0.000	 32.600	 99.099	 -99999.000
18244	  0.816	  0.413	  0.778	  0.089	 -0.031	 -9.751	 -0.004	  0.002	 -0.001	 32.600	 99.110	 -99999.000
18293	  0.816	  0.415	  0.781	  0.077	 -0.035	 -9.767	 -0.003	  0.003	  0.000	 32.600	 99.110	 -99999.000
18344	  0.813	  0.412	  0.783	  0.079	 -0.034	 -9.747	 -0.004	  0.003	 -0.001	 32.600	 99.110	 -99999.000
18393	  0.814	  0.421	  0.779	  0.086	 -0.040	 -9.778	 -0.003	  0.002	 -0.000	 32.600	 99.099	 -99999.000
18443	  0.814	  0.417	  0.783	  0.082	 -0.030	 -9.768	 -0.004	  0.003	  0.000	 32.600	 99.099	 -99999.000
18493	  0.816	  0.415	  0.779	  0.095	 -0.033	 -9.763	 -0.004	  0.003	  0.000	 32.600	 99.110	 -99999.000
18543	  0.813	  0.416	  0.781	  0.085	 -0.043	 -9.774	 -0.004	  0.003	  0.000	 32.600	 99.110	 -99999.000
18594	  0.814	  0.412	  0.783	  0.062	 -0.029	 -9.800	 -0.005	  0.002	  0.001	 32.600	 99.099	 -99999.000
18644	  0.816	  0.415	  0.782	  0.099	 -0.038	 -9.764	 -0.003	  0.002	  0.002	 32.600	 99.103	 -99999.000
18694	  0.813	  0.412	  0.780	  0.084	 -0.042	 -9.757	 -0.003	  0.001	 -0.000	 32.600	 99.110	 -99999.000
18744	  0.814	  0.417	  0.783	  0.097	 -0.042	 -9.785	 -0.004	  0.002	  0.001	 32.600	 99.099	 -99999.000
18794	  0.812	  0.413	  0.778	  0.096	 -0.048	 -9.759	 -0.004	  0.003	  0.000	 32.600	 99.099	 -99999.000
18844	  0.814	  0.418	  0.779	  0.100	 -0.022	 -9.750	 -0.003	  0.003	  0.001	 32.600	 99.099	 -99999.000
18894	  0.814	  0.414	  0.780	  0.084	 -0.023	 -9.753	 -0.004	  0.004	  0.000	 32.600	 99.110	 -99999.000
18944	  0.814	  0.416	  0.782	  0.090	 -0.020	 -9.752	 -0.003	  0.002	 -0.001	 32.600	 99.110	 -99999.000
18994	  0.814	  0.420	  0.782	  0.098	 -0.062	 -9.788	 -0.003	  0.003	  0.000	 32.600	 99.099	 -99999.000
19044	  0.813	  0.415	  0.784	  0.095	 -0.048	 -9.768	 -0.005	  0.002	  0.000	 32.600	 99.110	 -99999.000
19094	  0.813	  0.412	  0.778	  0.087	 -0.038	 -9.777	 -0.004	  0.003	  0.000	 32.600	 99.099	 -99999.000
19144	  0.813	  0.415	  0.780	  0.112	 -0.032	 -9.772	 -0.003	  0.003	  0.000	 32.600	 99.099	 -99999.000
19194	  0.813	  0.417	  0.783	  0.100	 -0.028	 -9.744	 -0.004	  0.002	 -0.001	 32.600	 99.099	 -99999.000
19244	  0.815	  0.416	  0.783	  0.093	 -0.032	 -9.744	 -0.004	  0.003	 -0.000	 32.600	 99.110	 -99999.000
19294	  0.814	  0.416	  0.783	  0.099	 -0.035	 -9.783	 -0.003	  0.002	  0.000	 32.600	 99.110	 -99999.000
19344	  0.813	  0.415	  0.781	  0.085	 -0.057	 -9.752	 -0.003	  0.003	  0.001	 32.600	 99.087	 -99999.000
19394	  0.814	  0.414	  0.779	  0.101	 -0.054	 -9.754	 -0.003	  0.003	 -0.000	 32.600	 99.110	 -99999.000
19444	  0.813	  0.417	  0.783	  0.103	 -0.021	 -9.751	 -0.004	  0.002	  0.000	 32.600	 99.099	 -99999.000
19494	  0.816	  0.415	  0.778	  0.085	 -0.029	 -9.774	 -0.004	  0.003	  0.000	 32.600	 99.110	 -99999.000
19544	  0.814	  0.413	  0.779	  0.079	 -0.044	 -9.725	 -0.004	  0.003	  0.001	 32.600	 99.103	 -99999.000
19594	  0.815	  0.415	  0.782	  0.106	 -0.047	 -9.740	 -0.004	  0.003	  0.001	 32.600	 99.099	 -99999.000
19644	  0.814	  0.419	  0.779	  0.102	 -0.041	 -9.743	 -0.003	  0.003	  0.000	 32.600	 99.110	 -99999.000
19694	  0.815	  0.414	  0.780	  0.114	 -0.053	 -9.738	 -0.003	  0.002	 -0.000	 32.600	 99.099	 -99999.000
19744	  0.815	  0.416	  0.780	  0.079	 -0.044	 -9.769	 -0.004	  0.002	  0.000	 32.600	 99.099	 -99999.000
19794	  0.814	  0.414	  0.783	  0.077	 -0.037	 -9.758	 -0.005	  0.002	  0.000	 32.600	 99.114	 -99999.000
19844	  0.815	  0.415	  0.782	  0.098	 -0.010	 -9.758	 -0.005	  0.002	  0.001	 32.600	 99.099	 -99999.000
19894	  0.815	  0.413	  0.783	  0.088	 -0.033	 -9.746	 -0.004	  0.003	  0.001	 32.600	 99.099	 -99999.000
19944	  0.814	  0.415	  0.779	  0.090	 -0.024	 -9.776	 -0.004	  0.002	  0.001	 32.600	 99.099	 -99999.000
19994	  0.814	  0.415	  0.779	  0.102	 -0.048	 -9.743	 -0.004	  0.002	 -0.000	 32.600	 99.110	 -99999.000
20044	  0.816	  0.414	  0.783	  0.122	 -0.032	 -9.702	 -0.003	  0.002	 -0.000	 32.600	 99.110	 -99999.000
20094	  0.813	  0.414	  0.779	  0.098	 -0.029	 -9.766	 -0.003	  0.003	 -0.000	 32.600	 99.083	 -99999.000
20144	  0.816	  0.420	  0.779	  0.089	 -0.041	 -9.725	 -0.004	  0.002	 -0.001	 32.600	 99.099	 -99999.000
20194	  0.813	  0.417	  0.779	  0.080	 -0.042	 -9.781	 -0.003	  0.003	  0.000	 32.600	 99.110	 -99999.000
20244	  0.814	  0.415	  0.783	  0.088	 -0.055	 -9.754	 -0.003	  0.001	  0.001	 32.600	 99.110	 -99999.000
20294	  0.813	  0.414	  0.779	  0.091	 -0.032	 -9.772	 -0.003	  0.003	  0.000	 32.600	 99.099	 -99999.000
20344	  0.812	  0.415	  0.783	  0.097	 -0.035	 -9.773	 -0.004	  0.002	  0.001	 32.600	 99.099	 -99999.000
20394	  0.816	  0.416	  0.783	  0.083	 -0.045	 -9.743	 -0.004	  0.002	  0.001	 32.600	 99.110	 -99999.000
20444	  0.814	  0.415	  0.783	  0.059	 -0.048	 -9.758	 -0.003	  0.003	  0.000	 32.600	 99.110	 -99999.000
20494	  0.816	  0.416	  0.784	  0.076	 -0.030	 -9.790	 -0.003	  0.003	  0.001	 32.600	 99.114	 -99999.000
20544	  0.814	  0.413	  0.782	  0.079	 -0.049	 -9.762	 -0.004	  0.003	  0.001	 32.600	 99.099	 -99999.000
20594	  0.814	  0.414	  0.785	  0.112	 -0.016	 -9.733	 -0.002	  0.003	 -0.001	 32.600	 99.110	 -99999.000
20644	  0.812	  0.416	  0.779	  0.088	 -0.051	 -9.773	 -0.003	  0.002	 -0.000	 32.600	 99.099	 -99999.000
20694	  0.813	  0.413	  0.782	  0.072	 -0.046	 -9.747	 -0.004	  0.002	 -0.000	 32.600	 99.110	 -99999.000
20744	  0.814	  0.416	  0.779	  0.091	 -0.056	 -9.750	 -0.005	  0.003	  0.001	 32.600	 99.099	 -99999.000
20794	  0.814	  0.415	  0.780	  0.096	 -0.025	 -9.741	 -0.003	  0.002	  0.000	 32.600	 99.099	 -99999.000
20844	  0.815	  0.417	  0.779	  0.081	 -0.045	 -9.756	 -0.005	  0.002	 -0.000	 32.600	 99.099	 -99999.000
20894	  0.814	  0.422	  0.780	  0.107	 -0.028	 -9.753	 -0.003	  0.003	 -0.002	 32.600	 99.110	 -99999.000
20944	  0.812	  0.418	  0.780	  0.101	 -0.035	 -9.778	 -0.003	  0.002	  0.000	 32.600	 99.099	 -99999.000
20994	  0.814	  0.413	  0.780	  0.103	 -0.041	 -9.758	 -0.003	  0.002	  0.000	 32.600	 99.110	 -99999.000
21044	  0.813	  0.413	  0.783	  0.100	 -0.020	 -9.723	 -0.004	  0.003	  0.000	 32.600	 99.114	 -99999.000
21094	  0.812	  0.417	  0.781	  0.090	 -0.026	 -9.799	 -0.005	  0.003	 -0.000	 32.600	 99.099	 -99999.000
21144	  0.816	  0.417	  0.778	  0.090	 -0.041	 -9.772	 -0.004	  0.002	 -0.001	 32.600	 99.099	 -99999.000
21194	  0.814	  0.415	  0.779	  0.085	 -0.038	 -9.751	 -0.004	  0.001	  0.000	 32.600	 99.099	 -99999.000
24944	  0.813	  0.414	  0.783	  0.086	 -0.038	 -9.784	 -0.004	  0.003	  0.001	 32.600	 99.110	 -0.559
24994	  0.815	  0.414	  0.778	  0.086	 -0.026	 -9.760	 -0.003	  0.003	 -0.000	 32.600	 99.099	  0.439
25044	  0.815	  0.414	  0.782	  0.082	 -0.051	 -9.787	 -0.002	  0.003	 -0.000	 32.600	 99.103	  0.076
25094	  0.815	  0.412	  0.782	  0.100	 -0.072	 -9.776	 -0.002	  0.004	  0.001	 32.600	 99.103	  0.076
25144	  0.815	  0.414	  0.783	  0.077	 -0.037	 -9.780	 -0.003	  0.004	 -0.000	 32.600	 99.114	 -0.922
25194	  0.813	  0.415	  0.780	  0.085	 -0.035	 -9.780	 -0.004	  0.002	 -0.001	 32.600	 99.099	  0.439
25244	  0.814	  0.417	  0.780	  0.071	 -0.052	 -9.806	 -0.003	  0.003	 -0.001	 32.600	 99.099	  0.439
25294	  0.814	  0.419	  0.783	  0.080	 -0.045	 -9.747	 -0.004	  0.002	 -0.001	 32.600	 99.114	 -0.922
25344	  0.813	  0.414	  0.779	  0.089	 -0.033	 -9.745	 -0.003	  0.004	 -0.000	 32.600	 99.099	  0.439
25394	  0.815	  0.416	  0.780	  0.076	 -0.032	 -9.788	 -0.003	  0.003	  0.000	 32.600	 99.099	  0.439
25444	  0.816	  0.417	  0.778	  0.075	 -0.043	 -9.807	 -0.002	  0.003	  0.001	 32.600	 99.099	  0.439
25494	  0.814	  0.417	  0.783	  0.111	 -0.040	 -9.736	 -0.003	  0.003	  0.000	 32.600	 99.087	  1.528
25544	  0.814	  0.418	  0.782	  0.108	 -0.055	 -9.751	 -0.005	  0.003	 -0.000	 32.600	 99.103	  0.076
25594	  0.814	  0.413	  0.782	  0.103	 -0.039	 -9.771	 -0.004	  0.001	 -0.000	 32.600	 99.099	  0.439
25644	  0.818	  0.415	  0.784	  0.114	 -0.028	 -9.774	 -0.003	  0.002	  0.001	 32.600	 99.110	 -0.559
25694	  0.815	  0.415	  0.782	  0.080	 -0.032	 -9.767	 -0.004	  0.002	  0.001	 32.600	 99.099	  0.439
25744	  0.816	  0.413	  0.781	  0.112	 -0.018	 -9.787	 -0.004	  0.001	 -0.001	 32.600	 99.110	 -0.559
25794	  0.814	  0.415	  0.782	  0.088	 -0.031	 -9.758	 -0.003	  0.003	 -0.001	 32.600	 99.103	  0.076
25844	  0.816	  0.413	  0.783	  0.090	 -0.041	 -9.748	 -0.004	  0.002	 -0.001	 32.600	 99.099	  0.439
25894	  0.812	  0.414	  0.780	  0.089	 -0.036	 -9.747	 -0.004	  0.003	  0.000	 32.600	 99.114	 -0.922
25944	  0.812	  0.418	  0.781	  0.096	 -0.030	 -9.767	 -0.002	  0.003	  0.001	 32.600	 99.103	  0.076
25994	  0.813	  0.416	  0.779	  0.104	 -0.020	 -9.767	 -0.004	  0.002	 -0.001	 32.600	 99.110	 -0.559
26044	  0.814	  0.416	  0.780	  0.119	 -0.027	 -9.747	 -0.004	  0.001	  0.001	 32.600	 99.103	  0.076
26094	  0.816	  0.414	  0.784	  0.105	 -0.030	 -9.772	 -0.003	  0.002	  0.001	 32.600	 99.103	  0.076
26144	  0.812	  0.415	  0.776	  0.120	 -0.030	 -9.775	 -0.002	  0.003	  0.001	 32.600	 99.099	  0.439
26194	  0.813	  0.415	  0.782	  0.090	 -0.044	 -9.768	 -0.003	  0.002	 -0.000	 32.600	 99.099	  0.439
26244	  0.815	  0.416	  0.782	  0.113	 -0.028	 -9.783	 -0.004	  0.002	  0.001	 32.600	 99.110	 -0.559
26294	  0.814	  0.413	  0.779	  0.064	 -0.032	 -9.766	 -0.004	  0.002	 -0.001	 32.600	 99.103	  0.076
26344	  0.813	  0.418	  0.781	  0.087	 -0.036	 -9.717	 -0.003	  0.003	  0.001	 32.600	 99.114	 -0.922
26394	  0.815	  0.414	  0.778	  0.114	 -0.032	 -9.732	 -0.003	  0.003	  0.001	 32.600	 99.114	 -0.922
26444	  0.816	  0.416	  0.782	  0.080	 -0.037	 -9.755	 -0.003	  0.003	 -0.000	 32.600	 99.091	  1.164
26494	  0.816	  0.416	  0.782	  0.091	 -0.040	 -9.752	 -0.003	  0.002	 -0.000	 32.600	 99.099	  0.439
26544	  0.816	  0.412	  0.781	  0.097	 -0.033	 -9.775	 -0.003	  0.002	  0.001	 32.600	 99.103	  0.076
26594	  0.816	  0.417	  0.780	  0.086	 -0.019	 -9.743	 -0.004	  0.003	 -0.000	 32.600	 99.110	 -0.559
26644	  0.813	  0.413	  0.778	  0.111	 -0.062	 -9.787	 -0.004	  0.002	 -0.001	 32.600	 99.110	 -0.559
26694	  0.816	  0.418	  0.779	  0.090	 -0.042	 -9.777	 -0.003	  0.003	 -0.001	 32.600	 99.099	  0.439
26744	  0.816	  0.415	  0.781	  0.115	  0.007	 -9.702	 -0.002	  0.004	 -0.000	 32.600	 99.114	 -0.922
26794	  0.813	  0.412	  0.780	  0.114	 -0.068	 -9.766	 -0.003	  0.002	 -0.000	 32.600	 99.103	  0.076
26844	  0.816	  0.413	  0.782	  0.067	 -0.011	 -9.769	 -0.004	  0.003	  0.001	 32.600	 99.114	 -0.922
26894	  0.816	  0.416	  0.784	  0.135	 -0.065	 -9.834	 -0.003	  0.003	  0.000	 32.600	 99.114	 -0.922
26944	  0.814	  0.414	  0.780	  0.107	 -0.048	 -9.770	 -0.002	  0.001	  0.002	 32.600	 99.103	  0.076
26994	  0.817	  0.418	  0.778	  0.318	  0.378	 -9.769	 -0.008	  0.011	 -0.041	 32.600	 99.099	  0.439
27044	  0.814	  0.418	  0.780	  0.016	 -0.031	 -9.710	 -0.007	 -0.001	 -0.017	 32.600	 99.103	  0.076
27094	  0.815	  0.414	  0.782	  0.195	  0.087	 -9.766	 -0.007	  0.001	 -0.058	 32.600	 99.091	  1.164
27144	  0.816	  0.418	  0.778	  0.179	  0.012	 -9.810	  0.001	 -0.000	 -0.117	 32.600	 99.103	  0.076
27194	  0.817	  0.425	  0.785	  0.177	  0.112	 -9.736	 -0.002	  0.003	 -0.069	 32.600	 99.103	  0.076
27244	  0.814	  0.422	  0.786	  0.141	 -0.197	 -9.864	 -0.004	 -0.005	  0.018	 32.600	 99.091	  1.164
27294	  0.818	  0.424	  0.790	  0.219	  0.156	 -9.782	  0.068	  0.013	  0.076	 32.600	 99.099	  0.439
27344	  0.822	  0.431	  0.798	  0.064	  0.065	 -9.989	  0.044	  0.078	 -0.370	 32.600	 99.103	  0.076
27394	  0.813	  0.439	  0.801	 -0.737	  0.209	 -9.550	  0.015	  0.009	 -0.068	 32.600	 99.099	  0.439
27444	  0.817	  0.419	  0.784	  0.360	 -0.560	 -10.265	 -0.021	 -0.044	  0.075	 32.600	 99.099	  0.439
27494	  0.812	  0.409	  0.770	  0.485	 -0.585	 -9.784	  0.017	  0.047	  0.041	 32.600	 99.099	  0.439
27544	  0.807	  0.414	  0.765	 -0.470	 -0.952	 -9.626	  0.041	 -0.049	 -0.283	 32.600	 99.091	  1.164
27594	  0.794	  0.431	  0.755	 -0.509	 -0.460	 -9.568	  0.160	 -0.084	 -0.430	 32.600	 99.103	  0.076
27644	  0.778	  0.445	  0.728	  0.218	  0.668	 -9.664	  0.204	 -0.001	 -0.004	 32.600	 99.099	  0.439
27694	  0.774	  0.445	  0.703	  1.303	 -0.835	 -9.462	  0.365	 -0.112	  0.102	 32.600	 99.103	  0.076
27744	  0.784	  0.454	  0.685	 -0.444	 -0.366	 -9.754	  0.007	 -0.343	 -0.148	 32.600	 99.099	  0.439
27794	  0.785	  0.446	  0.679	 -0.250	  0.154	 -9.800	 -0.082	 -0.074	  0.195	 32.600	 99.114	 -0.922
27844	  0.779	  0.445	  0.674	 -0.086	 -0.428	 -9.647	  0.242	  0.414	  0.108	 32.600	 99.099	  0.439
27894	  0.765	  0.447	  0.682	  0.666	 -0.411	 -9.583	  0.033	 -0.116	 -0.103	 32.600	 99.099	  0.439
27944	  0.769	  0.446	  0.681	 -0.122	 -0.241	 -9.764	 -0.039	 -0.032	  0.129	 32.600	 99.103	  0.076
27994	  0.767	  0.447	  0.687	  0.764	 -0.854	 -9.028	  0.007	  0.018	 -0.077	 32.600	 99.110	 -0.559
28044	  0.765	  0.453	  0.684	  0.017	 -0.582	 -9.732	  0.017	  0.002	  0.024	 32.600	 99.099	  0.439
28094	  0.767	  0.447	  0.687	  0.173	 -0.544	 -9.833	 -0.023	  0.006	  0.010	 32.600	 99.091	  1.164
28144	  0.764	  0.443	  0.687	  0.109	 -0.447	 -9.712	 -0.035	  0.008	 -0.049	 32.600	 99.103	  0.076
28194	  0.761	  0.449	  0.689	 -0.038	 -0.324	 -9.951	 -0.178	  0.225	  0.204	 32.600	 99.103	  0.076
28244	  0.752	  0.433	  0.699	  0.282	 -0.362	 -9.713	 -0.122	  0.261	  0.043	 32.600	 99.103	  0.076
28294	  0.743	  0.432	  0.704	  0.442	 -0.330	 -9.574	 -0.084	  0.071	 -0.019	 32.600	 99.103	  0.076
28344	  0.746	  0.424	  0.705	  0.428	 -0.437	 -9.540	 -0.014	 -0.223	 -0.032	 32.600	 99.103	  0.076
28394	  0.757	  0.426	  0.696	  0.032	 -0.234	 -9.932	 -0.011	 -0.163	  0.023	 32.600	 99.103	  0.076
28444	  0.760	  0.429	  0.697	  1.453	 -0.693	 -9.375	  0.254	 -0.008	 -0.159	 32.600	 99.099	  0.439
28494	  0.774	  0.475	  0.716	  2.947	  1.863	 -14.412	 -0.716	 -0.512	 -0.628	 32.600	 99.103	  0.076
28544	  0.780	  0.464	  0.743	 -1.860	 -1.905	 -11.313	  0.812	 -0.370	  0.980	 32.600	 99.103	  0.076
28594	  0.732	  0.411	  0.735	 -4.031	 -1.475	 -6.018	 -0.852	  1.290	  0.607	 32.600	 99.091	  1.164
28644	  0.668	  0.340	  0.749	 12.108	 -1.368	 -11.952	 -0.940	  0.213	 -0.440	 32.600	 99.099	  0.439
28694	  0.706	  0.350	  0.737	 -10.371	  4.237	 -12.706	  0.226	 -2.402	  0.374	 32.600	 99.103	  0.076
28744	  0.670	  0.310	  0.708	  2.024	 -3.220	  0.326	 -0.534	  1.619	  0.582	 32.600	 99.099	  0.439
28794	  0.691	  0.266	  0.724	 -0.148	  1.734	 -15.527	 -1.629	 -0.709	 -1.056	 32.600	 99.103	  0.076
28844	  0.670	  0.271	  0.733	 -1.836	  4.175	 -11.278	  1.207	 -0.062	  0.474	 32.600	 99.103	  0.076
28894	  0.655	  0.321	  0.687	 -3.328	  0.556	 -1.303	  1.340	  0.472	  0.956	 32.600	 99.103	  0.076
28944	  0.705	  0.274	  0.699	  7.727	 -4.501	 -9.793	 -1.443	 -0.357	 -0.397	 32.600	 99.103	  0.076
28994	  0.786	  0.321	  0.699	 -6.933	  4.050	 -21.962	  0.325	 -1.740	 -0.404	 32.600	 99.114	 -0.922
29045	  0.692	  0.288	  0.682	 -2.605	  0.905	 -1.656	 -0.256	  2.266	  1.157	 32.600	 99.099	  0.439
29094	  0.662	  0.222	  0.724	  9.747	 -3.528	 -8.257	 -1.914	 -0.852	 -0.564	 32.600	 99.114	 -0.922
29144	  0.791	  0.275	  0.696	 -10.123	  7.012	 -18.805	  1.968	 -1.723	 -0.535	 32.600	 99.114	 -0.922
29194	  0.730	  0.318	  0.662	  0.662	  1.735	 -0.263	  1.280	  3.003	  1.018	 32.600	 99.087	  1.528
29243	  0.775	  0.259	  0.679	  4.453	 -5.303	 -12.683	 -1.069	 -2.151	 -0.267	 32.600	 99.087	  1.528
29293	  0.827	  0.317	  0.641	 -6.040	  2.704	 -15.006	  1.517	 -0.487	 -0.007	 32.600	 99.110	 -0.559
29343	  0.730	  0.329	  0.661	  3.927	 -1.771	  4.136	 -0.726	  2.236	  0.302	 32.600	 99.103	  0.076
29394	  0.810	  0.260	  0.673	 -0.266	  1.914	 -17.009	 -0.085	 -1.726	 -0.348	 32.600	 99.103	  0.076
29444	  0.840	  0.393	  0.602	 -3.744	  1.403	 -14.287	  2.668	 -0.308	 -0.454	 32.600	 99.103	  0.076
29493	  0.778	  0.357	  0.629	  3.116	 -2.440	 -4.282	 -2.366	  0.638	  0.777	 32.600	 99.099	  0.439
29543	  0.799	  0.303	  0.661	 -3.082	  1.025	 -8.874	 -0.148	  0.107	 -0.781	 32.600	 99.099	  0.439
29594	  0.813	  0.346	  0.650	 -1.079	 -0.325	 -12.317	  0.486	  0.186	 -0.281	 32.600	 99.103	  0.076
29643	  0.797	  0.353	  0.661	  0.364	 -0.505	 -9.179	 -0.201	  0.190	 -0.025	 32.600	 99.103	  0.076
29694	  0.785	  0.359	  0.674	  0.011	 -0.376	 -8.270	 -0.066	  0.096	 -0.306	 32.600	 99.103	  0.076
29743	  0.794	  0.386	  0.669	 -0.933	  0.286	 -10.185	  0.560	  0.182	 -0.046	 32.600	 99.103	  0.076
29794	  0.783	  0.389	  0.680	  0.250	 -0.316	 -9.267	 -0.155	 -0.027	  0.148	 32.600	 99.114	 -0.922
29844	  0.786	  0.369	  0.670	  0.021	 -0.372	 -9.752	 -0.132	 -0.063	  0.104	 32.600	 99.103	  0.076
29894	  0.782	  0.363	  0.668	  0.207	 -0.117	 -9.747	  0.006	  0.137	  0.002	 32.600	 99.103	  0.076
29944	  0.788	  0.362	  0.668	 -0.093	 -0.254	 -9.791	 -0.071	 -0.153	 -0.009	 32.600	 99.103	  0.076
29994	  0.788	  0.369	  0.672	  0.058	 -0.413	 -9.800	  0.003	  0.122	  0.001	 32.600	 99.099	  0.439
30044	  0.778	  0.363	  0.683	  0.141	 -0.280	 -9.708	  0.002	  0.145	 -0.009	 32.600	 99.103	  0.076
30094	  0.777	  0.367	  0.676	  0.029	 -0.251	 -9.834	 -0.006	  0.010	  0.008	 32.600	 99.114	 -0.922
30144	  0.776	  0.363	  0.679	 -0.134	 -0.097	 -9.766	 -0.010	  0.007	 -0.003	 32.600	 99.103	  0.076
30194	  0.776	  0.361	  0.673	  0.141	 -0.247	 -9.783	 -0.002	  0.005	  0.010	 32.600	 99.099	  0.439
30244	  0.775	  0.362	  0.674	  0.141	 -0.233	 -9.744	 -0.002	  0.008	  0.042	 32.600	 99.103	  0.076
30294	  0.775	  0.358	  0.678	  0.045	 -0.192	 -9.866	 -0.024	  0.023	  0.015	 32.600	 99.103	  0.076
30344	  0.773	  0.359	  0.677	  0.098	 -0.224	 -9.780	  0.043	  0.071	 -0.010	 32.600	 99.103	  0.076
30394	  0.768	  0.360	  0.679	  0.324	 -0.383	 -9.525	  0.053	  0.075	 -0.065	 32.600	 99.091	  1.164
30444	  0.772	  0.378	  0.675	 -0.482	 -0.324	 -12.275	  0.167	 -0.283	 -0.230	 32.600	 99.099	  0.439
30494	  0.776	  0.368	  0.672	 -0.229	 -1.368	 -9.814	  0.116	  0.004	  0.193	 32.600	 99.099	  0.439
30544	  0.775	  0.373	  0.674	  0.096	 -0.341	 -9.789	 -0.237	 -0.013	 -0.068	 32.600	 99.110	 -0.559
30594	  0.772	  0.361	  0.677	  0.077	 -0.154	 -9.771	 -0.286	  0.006	  0.046	 32.600	 99.103	  0.076
30644	  0.772	  0.346	  0.679	  0.119	  0.258	 -9.597	 -0.240	 -0.014	  0.100	 32.600	 99.103	  0.076
30694	  0.773	  0.344	  0.680	  0.087	 -0.085	 -9.791	 -0.016	 -0.001	 -0.007	 32.600	 99.091	  1.164
30744	  0.775	  0.347	  0.681	  0.096	 -0.094	 -9.787	  0.030	  0.011	 -0.021	 32.600	 99.103	  0.076
30794	  0.773	  0.349	  0.684	  0.054	 -0.138	 -9.777	 -0.044	 -0.015	  0.045	 32.600	 99.103	  0.076
30844	  0.770	  0.344	  0.678	  0.185	  0.136	 -9.768	  0.112	  0.077	  0.072	 32.600	 99.114	 -0.922
30894	  0.766	  0.348	  0.681	  0.257	 -0.296	 -9.543	  0.042	  0.096	 -0.158	 32.600	 99.103	  0.076
30944	  0.762	  0.356	  0.688	  0.299	  0.052	 -9.519	  0.027	 -0.055	 -0.077	 32.600	 99.103	  0.076
30994	  0.768	  0.353	  0.682	 -0.082	 -0.020	 -10.127	 -0.127	 -0.052	  0.078	 32.600	 99.114	 -0.922
31044	  0.769	  0.348	  0.683	  0.225	 -0.043	 -9.594	 -0.253	 -0.130	  0.088	 32.600	 99.103	  0.076
31094	  0.774	  0.344	  0.681	  0.370	 -0.146	 -9.778	 -0.010	  0.001	  0.150	 32.600	 99.103	  0.076
31144	  0.775	  0.340	  0.685	  0.069	 -0.064	 -9.769	 -0.004	  0.005	  0.128	 32.600	 99.103	  0.076
31194	  0.777	  0.334	  0.683	  0.157	 -0.105	 -9.765	 -0.004	  0.006	  0.141	 32.600	 99.103	  0.076
31244	  0.783	  0.332	  0.687	 -0.121	  0.106	 -9.737	 -0.004	  0.001	  0.080	 32.600	 99.114	 -0.922
31294	  0.784	  0.327	  0.691	 -0.082	  0.054	 -9.703	 -0.008	 -0.003	  0.094	 32.600	 99.114	 -0.922
31344	  0.789	  0.322	  0.686	  0.112	  0.053	 -9.713	 -0.003	  0.002	  0.190	 32.600	 99.103	  0.076
31394	  0.791	  0.314	  0.686	  0.086	  0.025	 -9.756	 -0.004	 -0.001	  0.117	 32.600	 99.103	  0.076
31444	  0.794	  0.310	  0.686	  0.035	  0.020	 -9.763	  0.019	  0.022	  0.164	 32.600	 99.103	  0.076
31494	  0.796	  0.303	  0.689	  0.082	 -0.061	 -9.722	 -0.002	  0.004	  0.135	 32.600	 99.091	  1.164
31544	  0.798	  0.300	  0.683	  0.086	 -0.035	 -9.792	  0.001	 -0.001	  0.089	 32.600	 99.103	  0.076
31594	  0.798	  0.296	  0.685	  0.083	  0.067	 -9.788	 -0.003	 -0.003	  0.206	 32.600	 99.110	 -0.559
31644	  0.803	  0.280	  0.686	  0.009	 -0.140	 -9.808	  0.001	 -0.001	  0.307	 32.600	 99.114	 -0.922
31694	  0.809	  0.270	  0.687	  0.111	 -0.107	 -9.785	 -0.008	  0.010	  0.248	 32.600	 99.091	  1.164
31744	  0.809	  0.268	  0.690	 -0.016	 -0.255	 -9.730	 -0.007	  0.004	  0.051	 32.600	 99.114	 -0.922
31794	  0.810	  0.263	  0.691	  0.104	 -0.014	 -9.774	 -0.004	  0.003	  0.033	 32.600	 99.103	  0.076
31844	  0.812	  0.263	  0.692	  0.161	 -0.042	 -9.753	 -0.004	  0.001	 -0.005	 32.600	 99.103	  0.076
31894	  0.810	  0.268	  0.687	  0.054	 -0.104	 -9.758	  0.054	  0.015	 -0.066	 32.600	 99.103	  0.076
31944	  0.810	  0.267	  0.689	  0.109	 -0.259	 -9.720	  0.038	  0.007	 -0.122	 32.600	 99.114	 -0.922
31994	  0.810	  0.273	  0.688	  0.098	 -0.201	 -9.829	  0.095	  0.031	 -0.232	 32.600	 99.103	  0.076
32044	  0.805	  0.287	  0.690	  0.193	  0.198	 -9.580	 -0.083	 -0.093	 -0.106	 32.600	 99.091	  1.164
32094	  0.807	  0.287	  0.693	  0.108	 -0.114	 -9.797	 -0.050	 -0.000	  0.020	 32.600	 99.114	 -0.922
32144	  0.807	  0.286	  0.694	  0.115	 -0.094	 -9.779	 -0.006	  0.003	 -0.004	 32.600	 99.103	  0.076
32194	  0.804	  0.284	  0.696	  0.138	 -0.078	 -9.716	  0.001	  0.006	 -0.012	 32.600	 99.114	 -0.922
32244	  0.803	  0.289	  0.693	  0.363	 -0.410	 -9.630	 -0.080	 -0.006	 -0.248	 32.600	 99.103	  0.076
32294	  0.802	  0.306	  0.696	  0.298	 -0.228	 -9.755	 -0.012	 -0.005	 -0.517	 32.600	 99.103	  0.076
32344	  0.794	  0.330	  0.702	  0.152	  0.111	 -9.729	 -0.018	 -0.008	 -0.453	 32.600	 99.099	  0.439
32394	  0.794	  0.347	  0.711	 -0.803	  0.275	 -9.763	  0.014	  0.009	 -0.218	 32.600	 99.103	  0.076
32444	  0.791	  0.345	  0.703	  0.087	 -0.033	 -9.748	 -0.015	 -0.007	  0.001	 32.600	 99.103	  0.076
32494	  0.792	  0.349	  0.707	  0.077	 -0.061	 -9.766	  0.001	  0.008	  0.001	 32.600	 99.114	 -0.922
32544	  0.792	  0.347	  0.707	  0.096	 -0.036	 -9.761	 -0.006	 -0.000	  0.000	 32.600	 99.103	  0.076
32594	  0.793	  0.344	  0.706	  0.086	 -0.045	 -9.769	  0.000	  0.004	 -0.000	 32.600	 99.103	  0.076
32644	  0.795	  0.345	  0.711	  0.102	 -0.042	 -9.752	 -0.004	  0.002	 -0.001	 32.600	 99.103	  0.076
32694	  0.792	  0.349	  0.712	  0.140	  0.230	 -9.725	 -0.004	  0.003	 -0.153	 32.600	 99.103	  0.076
32744	  0.789	  0.366	  0.708	  0.179	 -0.183	 -9.859	  0.009	  0.017	 -0.267	 32.600	 99.114	 -0.922
32794	  0.786	  0.368	  0.708	  0.008	  0.039	 -9.668	  0.016	  0.031	 -0.050	 32.600	 99.107	 -0.287
32844	  0.786	  0.369	  0.710	  0.198	  0.050	 -9.469	 -0.018	 -0.012	 -0.151	 32.600	 99.103	  0.076
32894	  0.785	  0.382	  0.704	 -0.314	  0.060	 -9.597	  0.365	 -0.024	 -0.013	 32.600	 99.103	  0.076
32944	  0.789	  0.403	  0.683	 -0.623	 -0.797	 -9.981	  0.874	 -0.109	 -0.036	 32.600	 99.091	  1.164
32994	  0.788	  0.423	  0.654	  0.536	 -0.124	 -9.970	  0.258	 -0.095	  0.143	 32.600	 99.103	  0.076
33044	  0.785	  0.407	  0.644	  0.099	 -0.990	 -9.794	 -0.275	  0.134	  0.139	 32.600	 99.091	  1.164
33094	  0.770	  0.397	  0.649	 -0.671	 -0.827	 -9.659	 -0.023	  0.016	 -0.080	 32.600	 99.118	 -1.285
33144	  0.770	  0.384	  0.633	 -0.756	 -0.695	 -9.489	 -0.311	 -0.244	  0.200	 32.600	 99.103	  0.076
33194	  0.762	  0.370	  0.615	  0.512	 -0.977	 -9.668	  0.367	  0.137	  0.025	 32.600	 99.099	  0.439
33244	  0.745	  0.389	  0.603	  0.315	 -1.038	 -9.123	  0.590	  0.013	 -0.126	 32.600	 99.103	  0.076
33294	  0.751	  0.406	  0.567	 -0.806	 -1.071	 -9.766	  0.501	 -0.926	 -0.011	 32.600	 99.103	  0.076
33344	  0.769	  0.401	  0.509	 -0.547	 -1.150	 -9.834	 -0.138	 -0.895	  0.261	 32.600	 99.103	  0.076
33394	  0.778	  0.386	  0.460	 -1.517	 -0.787	 -9.611	  0.347	 -0.866	  0.223	 32.600	 99.114	 -0.922
33444	  0.782	  0.376	  0.414	 -1.145	 -1.691	 -10.019	  0.391	 -0.279	  0.229	 32.600	 99.103	  0.076
33494	  0.787	  0.362	  0.385	 -0.835	 -1.762	 -9.444	 -0.357	 -0.899	 -0.012	 32.600	 99.091	  1.164
33544	  0.796	  0.364	  0.364	 -1.853	 -1.378	 -9.362	  0.065	 -0.572	 -0.180	 32.600	 99.114	 -0.922
33594	  0.797	  0.379	  0.348	 -3.449	 -1.148	 -8.958	  0.487	  0.142	 -0.025	 32.600	 99.103	  0.076
33644	  0.785	  0.392	  0.339	 -2.178	 -1.648	 -9.578	  0.590	  0.306	 -0.034	 32.600	 99.103	  0.076
33694	  0.773	  0.404	  0.334	 -1.259	 -2.051	 -9.397	 -0.021	  0.059	 -0.249	 32.600	 99.114	 -0.922
33743	  0.767	  0.413	  0.339	 -2.023	 -1.467	 -10.623	 -0.669	  0.050	 -0.173	 32.600	 99.103	  0.076
33793	  0.754	  0.396	  0.377	 -1.190	 -2.022	 -9.848	 -0.663	  0.582	 -0.110	 32.600	 99.091	  1.164
33843	  0.734	  0.396	  0.419	 -1.683	 -1.288	 -9.258	 -0.334	  0.568	 -0.254	 32.600	 99.103	  0.076
33893	  0.712	  0.395	  0.455	 -0.317	 -1.266	 -10.402	 -0.796	  0.355	 -0.377	 32.600	 99.099	  0.439
33943	  0.688	  0.394	  0.502	 -1.997	 -0.048	 -8.281	 -0.763	  0.163	 -0.464	 32.600	 99.103	  0.076
33993	  0.679	  0.389	  0.519	 -1.514	 -0.481	 -7.414	 -0.200	 -0.153	 -0.178	 32.600	 99.103	  0.076
34043	  0.691	  0.397	  0.514	 -1.003	 -0.517	 -10.240	  0.143	 -0.288	 -0.080	 32.600	 99.118	 -1.285
34093	  0.699	  0.400	  0.497	 -2.114	 -0.190	 -10.772	  0.108	 -0.052	  0.268	 32.600	 99.096	  0.711
34143	  0.704	  0.383	  0.499	 -0.152	 -0.804	 -9.777	  0.159	  0.216	  0.103	 32.600	 99.103	  0.076
34193	  0.702	  0.389	  0.504	 -1.463	 -1.004	 -10.393	 -0.009	  0.088	  0.032	 32.600	 99.103	  0.076
34243	  0.682	  0.372	  0.517	 -1.420	 -0.951	 -12.148	 -0.780	  0.413	  0.186	 32.600	 99.103	  0.076
34293	  0.648	  0.353	  0.547	 -0.353	 -0.013	 -6.760	 -0.061	  0.466	 -0.153	 32.600	 99.099	  0.439
34343	  0.655	  0.372	  0.534	 -0.919	 -0.100	 -8.550	  0.635	 -0.634	 -0.028	 32.600	 99.091	  1.164
34393	  0.687	  0.389	  0.506	 -0.999	 -0.930	 -10.865	  0.430	 -0.402	 -0.037	 32.600	 99.103	  0.076
34443	  0.693	  0.400	  0.488	 -1.338	 -0.775	 -10.055	  0.107	  0.052	 -0.033	 32.600	 99.091	  1.164
34494	  0.689	  0.407	  0.493	 -0.685	 -1.065	 -9.408	  0.044	  0.132	  0.015	 32.600	 99.103	  0.076
34544	  0.688	  0.406	  0.489	 -0.094	 -0.980	 -9.375	  0.354	  0.062	 -0.106	 32.600	 99.107	 -0.287
34593	  0.696	  0.426	  0.482	 -0.897	 -0.949	 -10.101	  0.135	 -0.252	 -0.203	 32.600	 99.103	  0.076
34643	  0.710	  0.431	  0.478	 -1.589	 -1.208	 -10.840	 -0.224	 -0.213	 -0.148	 32.600	 99.114	 -0.922
34693	  0.706	  0.423	  0.498	 -1.011	 -1.462	 -9.140	 -0.875	  0.323	 -0.117	 32.600	 99.103	  0.076
34744	  0.686	  0.401	  0.531	 -0.952	 -0.727	 -8.638	 -0.789	  0.394	 -0.064	 32.600	 99.087	  1.528
34793	  0.678	  0.385	  0.549	 -1.718	 -0.351	 -7.739	  0.083	  0.199	  0.083	 32.600	 99.103	  0.076
34843	  0.684	  0.392	  0.537	  0.106	 -0.362	 -10.993	  0.386	 -0.132	 -0.018	 32.600	 99.103	  0.076
34893	  0.680	  0.396	  0.531	 -0.644	 -0.055	 -10.311	 -0.158	  0.098	  0.004	 32.600	 99.103	  0.076
34943	  0.675	  0.393	  0.546	 -0.822	 -0.309	 -9.134	 -0.235	  0.066	 -0.146	 32.600	 99.103	  0.076
34993	  0.675	  0.393	  0.539	 -0.980	 -0.619	 -10.507	  0.386	 -0.197	 -0.102	 32.600	 99.103	  0.076
35043	  0.679	  0.407	  0.527	 -0.618	 -0.861	 -11.514	  0.415	 -0.404	  0.152	 32.600	 99.103	  0.076
35093	  0.665	  0.403	  0.523	 -1.838	 -0.154	 -9.622	 -0.260	 -0.159	  0.110	 32.600	 99.103	  0.076
35143	  0.647	  0.366	  0.535	 -1.978	  0.149	 -4.572	 -1.141	  0.319	  0.292	 32.600	 99.103	  0.076
35194	  0.634	  0.290	  0.575	  1.059	 -0.865	 -2.169	 -1.638	  1.670	  0.782	 32.600	 99.103	  0.076
35243	  0.675	  0.328	  0.567	  5.916	 -2.054	 -26.498	  2.704	 -0.567	 -1.027	 32.600	 99.107	 -0.287
35294	  0.601	  0.378	  0.588	 -4.186	  3.079	 -10.479	 -1.054	  0.950	 -0.791	 32.600	 99.103	  0.076
35343	  0.518	  0.277	  0.620	  0.991	 -1.944	 11.830	 -1.467	  0.294	  0.255	 32.600	 99.103	  0.076
35394	  0.639	  0.330	  0.602	  2.082	  0.716	 -16.022	  3.139	 -1.395	 -0.036	 32.600	 99.103	  0.076
35444	  0.671	  0.448	  0.552	 -1.727	 -2.601	 -22.188	  0.288	  0.933	 -0.519	 32.600	 99.103	  0.076
35494	  0.565	  0.367	  0.617	 -0.190	  0.456	  0.342	 -2.828	  0.666	  0.270	 32.600	 99.091	  1.164
35544	  0.566	  0.320	  0.636	  2.311	  0.623	 -5.946	  0.415	 -0.442	  0.076	 32.600	 99.103	  0.076
35594	  0.626	  0.380	  0.609	 -2.207	 -0.106	 -14.546	  1.221	 -0.613	 -0.149	 32.600	 99.103	  0.076
35644	  0.641	  0.401	  0.582	 -1.986	  0.268	 -12.526	 -0.249	 -0.372	  0.164	 32.600	 99.103	  0.076
35694	  0.627	  0.364	  0.577	 -0.499	  0.236	 -6.666	 -0.517	 -0.146	  0.432	 32.600	 99.091	  1.164
35744	  0.655	  0.347	  0.548	  0.156	 -0.211	 -7.656	  0.803	 -0.805	  0.326	 32.600	 99.103	  0.076
35794	  0.700	  0.390	  0.503	 -0.191	 -0.801	 -11.826	  1.070	 -0.541	 -0.474	 32.600	 99.103	  0.076
35844	  0.706	  0.438	  0.489	 -1.903	 -1.225	 -11.995	  0.115	  0.301	 -0.649	 32.600	 99.103	  0.076
35894	  0.675	  0.450	  0.518	  0.104	  0.457	 -14.681	 -0.648	  0.063	 -0.364	 32.600	 99.107	 -0.287
35944	  0.606	  0.444	  0.571	 -2.976	 -0.249	 -10.021	 -0.906	  0.624	 -0.028	 32.600	 99.103	  0.076
35994	  0.563	  0.395	  0.596	 -3.634	  0.514	 10.444	  0.121	  0.682	  0.855	 32.600	 99.096	  0.711
36044	  0.667	  0.423	  0.572	  7.084	 -2.434	 -22.240	  0.449	 -0.553	 -0.516	 32.600	 99.103	  0.076
36094	  0.686	  0.448	  0.591	 -7.226	 -0.115	 -25.835	 -1.378	  0.817	 -0.554	 32.600	 99.103	  0.076
36144	  0.515	  0.368	  0.653	 -3.557	  0.259	 14.573	 -0.177	  2.474	  0.957	 32.600	 99.091	  1.164
36194	  0.570	  0.371	  0.631	  8.067	 -0.541	 -15.408	  0.337	 -1.835	 -0.529	 32.600	 99.107	 -0.287
36244	  0.640	  0.451	  0.614	 -6.513	 -1.138	 -18.375	  1.238	 -0.484	 -0.429	 32.600	 99.107	 -0.287
36294	  0.581	  0.425	  0.639	  2.144	 -0.729	  4.770	 -1.206	  1.689	  1.039	 32.600	 99.091	  1.164
36344	  0.641	  0.387	  0.655	  6.905	 -2.590	 -26.900	 -1.102	 -1.998	 -1.669	 32.600	 99.114	 -0.922
36394	  0.587	  0.423	  0.641	 -9.870	  8.237	 -2.970	  1.214	  1.686	  0.896	 32.600	 99.103	  0.076
36444	  0.581	  0.350	  0.641	  7.949	 -3.608	  0.644	 -0.877	 -1.134	  1.029	 32.600	 99.103	  0.076
36494	  0.695	  0.405	  0.606	 -1.402	 -1.461	 -20.517	  2.083	  0.055	 -1.428	 32.600	 99.103	  0.076
36544	  0.641	  0.457	  0.624	 -1.779	  0.574	 -10.223	 -1.021	  0.454	  0.241	 32.600	 99.118	 -1.285
36594	  0.604	  0.380	  0.637	  1.036	 -0.544	 -5.150	 -1.067	  0.207	  0.298	 32.600	 99.103	  0.076
36644	  0.599	  0.376	  0.650	  1.019	 -0.298	 -8.569	  0.465	  0.131	 -0.299	 32.600	 99.103	  0.076
36694	  0.616	  0.414	  0.642	 -1.223	  0.591	 -11.613	  0.500	 -0.103	 -0.245	 32.600	 99.103	  0.076
36744	  0.609	  0.414	  0.633	  0.041	 -0.466	 -10.854	 -0.363	  0.176	  0.080	 32.600	 99.103	  0.076
36794	  0.586	  0.400	  0.634	  0.681	 -0.025	 -8.916	 -0.327	  0.037	 -0.217	 32.600	 99.091	  1.164
36844	  0.579	  0.400	  0.633	  0.580	  0.554	 -8.204	 -0.027	 -0.088	 -0.212	 32.600	 99.103	  0.076
36894	  0.599	  0.417	  0.622	 -0.143	  0.725	 -9.871	  0.283	 -0.414	 -0.114	 32.600	 99.103	  0.076
36944	  0.615	  0.435	  0.608	 -0.140	  0.146	 -10.534	  0.356	  0.002	 -0.167	 32.600	 99.103	  0.076
36994	  0.619	  0.450	  0.604	 -0.287	 -0.053	 -10.118	  0.013	 -0.106	  0.009	 32.600	 99.103	  0.076
37044	  0.626	  0.441	  0.595	 -0.274	 -0.224	 -8.994	 -0.125	 -0.152	  0.061	 32.600	 99.091	  1.164
37094	  0.643	  0.448	  0.587	 -0.341	 -0.037	 -9.233	  0.353	 -0.185	  0.053	 32.600	 99.103	  0.076
37144	  0.662	  0.460	  0.561	 -0.265	 -0.315	 -9.342	  0.576	 -0.389	  0.112	 32.600	 99.091	  1.164
37194	  0.662	  0.458	  0.561	  0.271	 -0.903	 -9.638	 -0.248	 -0.012	  0.102	 32.600	 99.103	  0.076
37244	  0.658	  0.449	  0.573	  0.025	 -0.579	 -9.848	 -0.452	  0.377	  0.072	 32.600	 99.103	  0.076
37294	  0.650	  0.445	  0.579	  0.140	  0.129	 -9.956	 -0.072	  0.063	  0.115	 32.600	 99.103	  0.076
37344	  0.655	  0.435	  0.585	  0.215	  0.207	 -9.845	 -0.016	  0.011	  0.153	 32.600	 99.103	  0.076
37394	  0.656	  0.434	  0.582	 -0.029	  0.171	 -9.784	  0.005	  0.005	  0.115	 32.600	 99.103	  0.076
37444	  0.660	  0.425	  0.583	  0.075	 -0.618	 -9.643	 -0.029	 -0.009	  0.086	 32.600	 99.103	  0.076
37494	  0.659	  0.432	  0.581	 -0.110	 -0.108	 -9.752	 -0.006	 -0.001	 -0.035	 32.600	 99.103	  0.076
37544	  0.659	  0.427	  0.584	 -0.126	 -0.125	 -9.825	 -0.005	  0.001	 -0.014	 32.600	 99.103	  0.076
37594	  0.660	  0.427	  0.583	 -0.042	 -0.137	 -9.744	 -0.007	  0.005	  0.039	 32.600	 99.091	  1.164
37644	  0.659	  0.428	  0.587	  0.011	 -0.112	 -9.743	 -0.000	  0.004	 -0.012	 32.600	 99.103	  0.076
37694	  0.658	  0.432	  0.584	 -0.105	 -0.042	 -9.784	 -0.002	  0.003	 -0.044	 32.600	 99.103	  0.076
37744	  0.659	  0.428	  0.585	 -0.022	 -0.184	 -9.763	 -0.001	  0.002	 -0.012	 32.600	 99.091	  1.164
37794	  0.659	  0.427	  0.582	 -0.043	 -0.140	 -9.764	 -0.003	  0.003	 -0.008	 32.600	 99.103	  0.076
37844	  0.659	  0.427	  0.584	  0.024	 -0.167	 -9.723	 -0.010	 -0.003	 -0.026	 32.600	 99.103	  0.076
37894	  0.659	  0.423	  0.586	 -0.067	 -0.082	 -9.802	 -0.020	 -0.008	 -0.035	 32.600	 99.103	  0.076
37944	  0.658	  0.426	  0.585	 -0.143	  0.025	 -9.783	 -0.015	 -0.003	  0.018	 32.600	 99.107	 -0.287
37994	  0.662	  0.423	  0.585	  0.090	 -0.170	 -9.732	 -0.002	 -0.001	  0.078	 32.600	 99.096	  0.711
38044	  0.662	  0.420	  0.580	 -0.019	 -0.098	 -9.832	 -0.010	  0.001	  0.027	 32.600	 99.103	  0.076
38094	  0.662	  0.420	  0.585	 -0.017	 -0.074	 -9.768	 -0.020	 -0.004	 -0.004	 32.600	 99.103	  0.076
38144	  0.661	  0.416	  0.585	 -0.035	 -0.043	 -9.768	  0.002	  0.006	  0.033	 32.600	 99.096	  0.711
38194	  0.663	  0.417	  0.588	 -0.056	 -0.086	 -9.778	  0.004	  0.004	 -0.042	 32.600	 99.103	  0.076
38244	  0.662	  0.423	  0.585	 -0.047	 -0.059	 -9.738	 -0.007	  0.000	 -0.023	 32.600	 99.103	  0.076
38294	  0.662	  0.419	  0.584	 -0.034	 -0.079	 -9.754	  0.004	  0.006	  0.016	 32.600	 99.103	  0.076
38344	  0.666	  0.419	  0.588	  0.051	  0.039	 -9.829	 -0.043	 -0.015	 -0.014	 32.600	 99.103	  0.076
38394	  0.665	  0.416	  0.586	 -0.321	 -0.159	 -9.722	 -0.067	 -0.025	  0.009	 32.600	 99.107	 -0.287
38444	  0.670	  0.414	  0.588	  0.072	 -0.308	 -9.743	 -0.019	  0.005	  0.070	 32.600	 99.103	  0.076
38494	  0.667	  0.416	  0.583	 -0.035	 -0.130	 -9.697	  0.036	  0.016	 -0.067	 32.600	 99.107	 -0.287
38544	  0.668	  0.418	  0.589	 -0.072	 -0.018	 -9.727	  0.013	  0.003	 -0.109	 32.600	 99.103	  0.076
38594	  0.663	  0.421	  0.587	 -0.120	 -0.120	 -9.825	  0.007	  0.006	 -0.124	 32.600	 99.091	  1.164
38644	  0.661	  0.427	  0.590	 -0.075	 -0.222	 -9.719	  0.046	  0.017	 -0.087	 32.600	 99.107	 -0.287
38694	  0.662	  0.427	  0.591	 -0.117	  0.051	 -9.622	  0.035	  0.020	  0.025	 32.600	 99.091	  1.164
38744	  0.662	  0.432	  0.587	  0.026	 -0.051	 -9.738	  0.040	  0.017	  0.013	 32.600	 99.096	  0.711
38794	  0.661	  0.428	  0.587	 -0.006	 -0.132	 -9.726	  0.003	  0.006	 -0.066	 32.600	 99.114	 -0.922
38844	  0.660	  0.432	  0.591	 -0.006	 -0.154	 -9.786	  0.004	  0.007	  0.022	 32.600	 99.107	 -0.287
38894	  0.661	  0.434	  0.591	 -0.065	 -0.123	 -9.816	  0.004	  0.004	  0.002	 32.600	 99.103	  0.076
38944	  0.660	  0.429	  0.587	 -0.011	 -0.084	 -9.783	  0.005	  0.007	  0.004	 32.600	 99.091	  1.164
38994	  0.661	  0.433	  0.590	 -0.028	 -0.096	 -9.714	 -0.005	  0.006	  0.005	 32.600	 99.103	  0.076
39044	  0.662	  0.432	  0.587	 -0.079	 -0.050	 -9.777	 -0.002	  0.005	 -0.013	 32.600	 99.091	  1.164
39094	  0.661	  0.431	  0.587	 -0.032	 -0.085	 -9.755	 -0.004	  0.005	  0.019	 32.600	 99.118	 -1.285
39144	  0.662	  0.427	  0.589	 -0.036	 -0.074	 -9.735	 -0.009	  0.004	 -0.001	 32.600	 99.107	 -0.287
39194	  0.663	  0.429	  0.589	 -0.022	 -0.081	 -9.749	  0.003	  0.006	 -0.016	 32.600	 99.103	  0.076
39244	  0.661	  0.430	  0.589	 -0.054	 -0.011	 -9.757	  0.004	  0.003	 -0.011	 32.600	 99.103	  0.076
39294	  0.662	  0.435	  0.590	 -0.042	 -0.102	 -9.775	 -0.001	  0.002	  0.008	 32.600	 99.114	 -0.922
39344	  0.660	  0.428	  0.585	  0.039	 -0.187	 -9.782	  0.005	  0.005	 -0.008	 32.600	 99.107	 -0.287
39394	  0.661	  0.432	  0.586	 -0.104	 -0.097	 -9.784	 -0.008	  0.002	 -0.096	 32.600	 99.091	  1.164
39444	  0.659	  0.437	  0.590	  0.115	 -0.255	 -9.771	 -0.032	 -0.011	 -0.154	 32.600	 99.091	  1.164
39494	  0.657	  0.442	  0.590	 -0.059	 -0.117	 -9.740	 -0.009	 -0.003	 -0.161	 32.600	 99.107	 -0.287
39544	  0.653	  0.448	  0.590	 -0.130	 -0.045	 -9.836	 -0.009	  0.001	 -0.113	 32.600	 99.114	 -0.922
39594	  0.666	  0.426	  0.589	  1.679	  1.845	 -16.306	 -0.137	  0.362	  3.098	 32.600	 99.107	 -0.287
39644	  0.708	  0.334	  0.603	 -0.337	 -0.977	 -8.680	 -0.062	  0.362	  1.538	 32.600	 99.103	  0.076
39694	  0.737	  0.293	  0.604	 -0.235	 -2.707	 -9.108	 -0.158	 -0.539	 -0.041	 32.600	 99.103	  0.076
39744	  0.742	  0.311	  0.596	 -0.251	 -1.000	 -9.335	  0.057	 -0.013	 -0.558	 32.600	 99.103	  0.076
39794	  0.728	  0.331	  0.595	  0.303	  1.267	 -9.809	  0.008	 -0.005	 -0.310	 32.600	 99.103	  0.076
39844	  0.725	  0.333	  0.594	 -0.061	 -0.122	 -9.783	 -0.025	  0.000	  0.028	 32.600	 99.103	  0.076
39894	  0.724	  0.328	  0.595	 -0.023	 -0.063	 -9.778	 -0.031	 -0.007	  0.078	 32.600	 99.103	  0.076
39944	  0.724	  0.329	  0.595	  0.011	 -0.068	 -9.730	 -0.007	  0.001	 -0.002	 32.600	 99.107	 -0.287
39994	  0.724	  0.327	  0.595	 -0.082	 -0.100	 -9.841	 -0.046	 -0.019	  0.060	 32.600	 99.107	 -0.287
40044	  0.723	  0.319	  0.592	 -0.022	 -0.117	 -9.828	  0.023	  0.024	  0.253	 32.600	 99.103	  0.076
40094	  0.721	  0.313	  0.594	  0.263	  0.124	 -9.602	  0.120	  0.056	  0.135	 32.600	 99.114	 -0.922
40144	  0.719	  0.315	  0.591	 -0.175	 -0.003	 -9.779	  0.042	  0.038	  0.083	 32.600	 99.103	  0.076
40194	  0.709	  0.321	  0.586	 -0.013	 -0.071	 -9.825	  0.299	  0.284	  0.025	 32.600	 99.091	  1.164
40244	  0.702	  0.327	  0.589	  0.013	  0.542	 -9.725	 -0.141	 -0.124	 -0.036	 32.600	 99.114	 -0.922
40294	  0.698	  0.333	  0.586	  0.172	 -0.303	 -9.827	 -0.091	 -0.050	 -0.072	 32.600	 99.096	  0.711
40344	  0.696	  0.338	  0.588	  0.051	 -0.184	 -9.855	  0.029	  0.017	  0.001	 32.600	 99.103	  0.076
40394	  0.693	  0.340	  0.586	  0.113	 -0.230	 -9.750	 -0.017	 -0.008	 -0.115	 32.600	 99.107	 -0.287
40444	  0.694	  0.344	  0.588	  0.130	 -0.313	 -9.766	 -0.009	 -0.001	  0.002	 32.600	 99.103	  0.076
40495	  0.691	  0.343	  0.592	  0.117	 -0.276	 -9.741	 -0.005	  0.002	 -0.002	 32.600	 99.118	 -1.285
40544	  0.694	  0.347	  0.590	  0.082	 -0.168	 -9.812	  0.008	  0.005	 -0.019	 32.600	 99.107	 -0.287
40595	  0.692	  0.352	  0.589	  0.081	 -0.138	 -9.764	 -0.002	 -0.005	 -0.119	 32.600	 99.103	  0.076
40644	  0.689	  0.359	  0.587	 -0.160	 -0.073	 -9.890	  0.031	  0.022	 -0.104	 32.600	 99.103	  0.076
40694	  0.687	  0.353	  0.591	  0.103	 -0.061	 -9.828	 -0.016	 -0.021	  0.021	 32.600	 99.103	  0.076
40744	  0.688	  0.352	  0.587	  0.248	  0.448	 -9.857	 -0.036	  0.062	  0.079	 32.600	 99.091	  1.164
40794	  0.686	  0.346	  0.590	  0.263	 -0.707	 -10.098	  0.199	  0.379	  0.318	 32.600	 99.091	  1.164
40845	  0.672	  0.337	  0.601	  0.115	 -0.611	 -9.439	  0.142	  0.267	  0.157	 32.600	 99.091	  1.164
40894	  0.663	  0.337	  0.600	  1.241	 -1.260	 -8.711	  0.589	  0.014	  0.079	 32.600	 99.103	  0.076
40945	  0.684	  0.348	  0.576	  0.113	 -1.196	 -8.970	  0.806	 -0.730	  0.678	 32.600	 99.107	 -0.287
40994	  0.717	  0.368	  0.533	 -0.250	 -2.010	 -10.571	  1.044	  0.265	 -0.132	 32.600	 99.107	 -0.287
41044	  0.719	  0.405	  0.514	 -0.537	 -1.380	 -10.254	  0.934	  0.112	  0.089	 32.600	 99.096	  0.711
41093	  0.718	  0.429	  0.492	 -0.205	 -3.614	 -9.401	  1.161	  0.073	  0.075	 32.600	 99.103	  0.076
41144	  0.711	  0.469	  0.464	 -0.207	 -1.970	 -9.119	  0.351	 -0.046	 -0.340	 32.600	 99.107	 -0.287
41195	  0.710	  0.473	  0.453	 -0.897	 -3.443	 -9.226	 -0.194	 -0.690	 -0.154	 32.600	 99.103	  0.076
41244	  0.720	  0.460	  0.423	  0.262	 -3.315	 -9.446	 -0.336	 -0.775	  0.243	 32.600	 99.107	 -0.287
41295	  0.707	  0.468	  0.417	 -0.467	 -2.292	 -9.528	  0.442	  0.951	 -0.061	 32.600	 99.103	  0.076
41345	  0.680	  0.470	  0.429	 -0.346	 -1.688	 -9.773	 -0.169	  0.372	  0.279	 32.600	 99.103	  0.076
41395	  0.672	  0.449	  0.447	  1.504	 -2.396	 -9.501	 -0.640	  0.172	  0.082	 32.600	 99.107	 -0.287
41445	  0.668	  0.444	  0.453	  0.534	 -2.239	 -9.266	  0.053	  0.011	 -0.228	 32.600	 99.107	 -0.287
41495	  0.671	  0.451	  0.456	 -0.519	 -2.305	 -9.506	 -0.129	 -0.010	 -0.048	 32.600	 99.103	  0.076
41545	  0.672	  0.451	  0.459	  0.084	 -2.544	 -9.311	 -0.109	  0.021	  0.051	 32.600	 99.107	 -0.287
41595	  0.673	  0.445	  0.465	 -0.042	 -2.142	 -9.531	 -0.049	  0.024	  0.034	 32.600	 99.107	 -0.287
41645	  0.673	  0.442	  0.465	  0.170	 -2.390	 -9.313	  0.032	 -0.061	  0.049	 32.600	 99.096	  0.711
41695	  0.678	  0.442	  0.464	  0.207	 -1.963	 -9.678	 -0.078	  0.001	  0.009	 32.600	 99.114	 -0.922
41745	  0.676	  0.438	  0.470	 -0.033	 -1.994	 -9.619	 -0.188	 -0.003	  0.013	 32.600	 99.103	  0.076
41795	  0.675	  0.432	  0.471	  0.058	 -2.149	 -9.531	 -0.163	  0.005	 -0.005	 32.600	 99.107	 -0.287
41845	  0.676	  0.426	  0.480	  0.021	 -2.494	 -9.398	 -0.077	 -0.005	 -0.027	 32.600	 99.107	 -0.287
41895	  0.675	  0.425	  0.478	  0.157	 -1.990	 -9.564	 -0.070	 -0.003	  0.011	 32.600	 99.103	  0.076
41945	  0.678	  0.427	  0.478	  0.040	 -2.027	 -9.601	 -0.136	 -0.077	 -0.011	 32.600	 99.091	  1.164
41995	  0.682	  0.422	  0.475	 -0.021	 -1.917	 -9.560	 -0.133	 -0.189	  0.028	 32.600	 99.107	 -0.287
42045	  0.688	  0.419	  0.477	 -0.297	 -1.871	 -9.591	 -0.134	 -0.226	 -0.032	 32.600	 99.096	  0.711
42095	  0.693	  0.418	  0.474	 -0.291	 -1.814	 -9.462	 -0.059	 -0.045	 -0.040	 32.600	 99.103	  0.076
42145	  0.703	  0.420	  0.475	 -0.319	 -1.771	 -9.655	 -0.107	 -0.262	 -0.008	 32.600	 99.107	 -0.287
42195	  0.714	  0.415	  0.467	 -0.661	 -1.578	 -9.715	 -0.110	 -0.255	  0.004	 32.600	 99.118	 -1.285
42245	  0.714	  0.413	  0.464	 -0.493	 -1.546	 -9.589	  0.123	  0.401	  0.001	 32.600	 99.096	  0.711
42294	  0.711	  0.412	  0.464	 -0.413	 -1.690	 -9.595	 -0.055	 -0.162	  0.031	 32.600	 99.107	 -0.287
42344	  0.717	  0.421	  0.462	 -0.978	 -1.430	 -9.872	  0.061	  0.244	  0.008	 32.600	 99.107	 -0.287
42394	  0.702	  0.419	  0.471	 -0.149	 -1.843	 -9.522	  0.073	  0.194	 -0.072	 32.600	 99.096	  0.711
42444	  0.701	  0.417	  0.471	 -0.325	 -1.951	 -9.716	  0.071	  0.250	 -0.016	 32.600	 99.103	  0.076
42495	  0.693	  0.426	  0.483	 -0.091	 -1.855	 -9.643	  0.045	  0.171	  0.016	 32.600	 99.096	  0.711
42544	  0.687	  0.427	  0.485	  0.125	 -1.942	 -9.557	  0.083	  0.261	 -0.103	 32.600	 99.107	 -0.287
42594	  0.677	  0.434	  0.495	  0.399	 -1.820	 -9.341	  0.001	  0.155	 -0.068	 32.600	 99.103	  0.076
42644	  0.680	  0.437	  0.495	 -0.683	 -1.902	 -10.032	 -0.065	 -0.079	 -0.089	 32.600	 99.107	 -0.287
42694	  0.679	  0.430	  0.486	 -0.340	 -1.694	 -9.804	 -0.067	 -0.073	  0.132	 32.600	 99.107	 -0.287
42744	  0.684	  0.420	  0.486	 -0.639	 -1.625	 -9.681	 -0.093	 -0.093	  0.308	 32.600	 99.091	  1.164
42795	  0.683	  0.404	  0.483	  0.700	 -2.374	 -10.419	 -0.464	  0.041	  0.188	 32.600	 99.091	  1.164
42844	  0.674	  0.389	  0.495	 -0.076	 -1.298	 -9.309	 -0.240	  0.202	  0.011	 32.600	 99.103	  0.076
42894	  0.665	  0.383	  0.501	 -0.187	 -0.990	 -9.337	 -0.121	  0.146	  0.127	 32.600	 99.107	 -0.287
42944	  0.663	  0.378	  0.503	  0.424	 -1.602	 -9.353	  0.080	  0.107	  0.002	 32.600	 99.107	 -0.287
42994	  0.661	  0.377	  0.500	  0.319	 -1.327	 -9.303	  0.090	 -0.137	  0.039	 32.600	 99.107	 -0.287
43044	  0.669	  0.382	  0.494	 -0.323	 -1.597	 -9.991	  0.138	 -0.052	  0.069	 32.600	 99.091	  1.164
43094	  0.667	  0.379	  0.494	  0.464	 -1.605	 -9.611	 -0.062	  0.097	 -0.048	 32.600	 99.107	 -0.287
43144	  0.659	  0.384	  0.496	 -0.244	 -1.481	 -10.079	  0.048	  0.135	  0.057	 32.600	 99.107	 -0.287
43194	  0.659	  0.375	  0.501	  0.256	 -1.618	 -9.534	 -0.104	 -0.076	  0.053	 32.600	 99.107	 -0.287
43244	  0.657	  0.371	  0.498	  0.028	 -1.208	 -9.660	 -0.181	  0.013	  0.059	 32.600	 99.107	 -0.287
43294	  0.659	  0.365	  0.497	  0.252	 -1.365	 -9.525	 -0.077	 -0.146	  0.119	 32.600	 99.096	  0.711
43344	  0.670	  0.361	  0.490	 -0.175	 -1.433	 -9.335	 -0.100	 -0.316	  0.101	 32.600	 99.107	 -0.287
43394	  0.667	  0.356	  0.493	 -0.359	 -1.295	 -10.480	 -0.303	  0.100	  0.035	 32.600	 99.103	  0.076
43444	  0.662	  0.343	  0.492	  0.072	 -1.473	 -9.732	 -0.055	  0.150	  0.126	 32.600	 99.107	 -0.287
43494	  0.655	  0.345	  0.504	 -0.315	 -0.937	 -9.420	  0.011	  0.290	 -0.127	 32.600	 99.107	 -0.287
43544	  0.650	  0.344	  0.509	  0.654	 -0.979	 -8.258	  0.149	 -0.095	  0.086	 32.600	 99.096	  0.711
43594	  0.657	  0.343	  0.491	  0.181	 -1.151	 -9.234	  0.173	 -0.499	  0.119	 32.600	 99.107	 -0.287
43644	  0.694	  0.350	  0.458	  1.235	 -0.993	 -6.886	  0.433	 -1.495	 -0.125	 32.600	 99.107	 -0.287
43695	  0.736	  0.361	  0.429	 -3.068	 -1.506	 -9.807	 -0.050	 -0.213	 -0.225	 32.600	 99.107	 -0.287
43744	  0.738	  0.357	  0.431	 -1.147	 -1.522	 -9.661	  0.057	  0.153	  0.031	 32.600	 99.107	 -0.287
43794	  0.738	  0.360	  0.428	 -0.930	 -1.382	 -9.595	 -0.002	 -0.040	  0.062	 32.600	 99.118	 -1.285
43844	  0.737	  0.360	  0.433	 -1.022	 -1.453	 -9.608	  0.040	  0.044	  0.084	 32.600	 99.103	  0.076
43894	  0.738	  0.352	  0.430	 -0.994	 -1.344	 -9.616	  0.068	  0.088	  0.049	 32.600	 99.096	  0.711
43944	  0.735	  0.353	  0.430	 -0.801	 -1.221	 -9.606	  0.105	  0.082	  0.139	 32.600	 99.107	 -0.287
43994	  0.735	  0.352	  0.430	 -0.829	 -1.596	 -9.633	  0.134	  0.042	 -0.002	 32.600	 99.096	  0.711
44044	  0.732	  0.355	  0.430	 -1.236	 -1.746	 -9.542	  0.233	  0.291	 -0.038	 32.600	 99.107	 -0.287
44094	  0.725	  0.357	  0.428	 -1.246	 -1.210	 -11.454	 -0.048	 -0.287	  0.279	 32.600	 99.107	 -0.287
44144	  0.715	  0.334	  0.435	 -0.832	 -1.597	 -11.649	 -1.038	  0.111	  0.029	 32.600	 99.096	  0.711
44194	  0.682	  0.296	  0.472	 -0.919	 -1.206	 -9.055	 -1.334	  0.229	  0.009	 32.600	 99.107	 -0.287
44244	  0.656	  0.272	  0.492	 -0.450	 -0.110	 -8.273	 -0.818	 -0.081	  0.097	 32.600	 99.114	 -0.922
44294	  0.650	  0.255	  0.493	 -0.819	  0.280	 -9.181	 -0.273	 -0.107	 -0.076	 32.600	 99.107	 -0.287
44344	  0.640	  0.260	  0.494	 -0.803	  0.333	 -9.019	  0.244	  0.012	 -0.033	 32.600	 99.114	 -0.922
44394	  0.649	  0.263	  0.488	 -0.443	 -0.381	 -10.077	 -0.065	 -0.343	 -0.043	 32.600	 99.107	 -0.287
44444	  0.651	  0.268	  0.485	 -1.358	  0.127	 -9.342	 -0.045	  0.157	 -0.073	 32.600	 99.118	 -1.285
44494	  0.647	  0.268	  0.489	 -0.886	 -0.129	 -9.590	  0.225	  0.011	 -0.000	 32.600	 99.107	 -0.287
44544	  0.653	  0.266	  0.483	 -0.903	 -0.157	 -9.797	  0.031	 -0.059	 -0.011	 32.600	 99.107	 -0.287
44594	  0.652	  0.275	  0.483	 -0.857	 -0.425	 -9.526	  0.105	 -0.043	  0.009	 32.600	 99.096	  0.711
44644	  0.654	  0.277	  0.478	 -0.876	 -0.550	 -9.512	  0.254	  0.087	 -0.027	 32.600	 99.096	  0.711
44694	  0.659	  0.288	  0.473	 -0.642	 -0.589	 -10.140	  0.104	 -0.199	  0.103	 32.600	 99.103	  0.076
44744	  0.660	  0.288	  0.475	 -1.262	 -0.162	 -9.455	 -0.037	  0.239	  0.048	 32.600	 99.096	  0.711
44794	  0.651	  0.293	  0.479	 -0.534	  0.147	 -9.559	  0.057	  0.220	 -0.136	 32.600	 99.103	  0.076
44844	  0.649	  0.299	  0.485	 -0.553	 -0.220	 -9.405	  0.259	  0.071	 -0.178	 32.600	 99.103	  0.076
44894	  0.654	  0.310	  0.477	 -0.922	 -0.686	 -9.997	  0.224	 -0.112	 -0.107	 32.600	 99.107	 -0.287
44944	  0.659	  0.326	  0.477	 -1.014	 -0.790	 -10.095	  0.068	  0.009	 -0.028	 32.600	 99.096	  0.711
44994	  0.660	  0.318	  0.477	 -0.870	 -0.741	 -9.632	 -0.025	  0.076	  0.021	 32.600	 99.107	 -0.287
45044	  0.660	  0.318	  0.474	 -0.495	 -0.675	 -9.518	  0.068	 -0.057	  0.035	 32.600	 99.096	  0.711
45094	  0.667	  0.324	  0.473	 -0.755	 -0.636	 -9.703	  0.067	 -0.061	 -0.023	 32.600	 99.107	 -0.287
45144	  0.665	  0.327	  0.468	 -0.648	 -0.771	 -9.877	  0.106	 -0.063	 -0.037	 32.600	 99.107	 -0.287
45194	  0.669	  0.331	  0.468	 -1.256	 -0.827	 -10.395	 -0.172	  0.024	 -0.027	 32.600	 99.107	 -0.287
45244	  0.660	  0.328	  0.475	 -0.825	 -0.689	 -9.658	 -0.305	 -0.012	  0.029	 32.600	 99.096	  0.711
45294	  0.656	  0.313	  0.485	 -0.655	 -0.509	 -9.775	 -0.312	  0.056	  0.015	 32.600	 99.107	 -0.287
45344	  0.650	  0.303	  0.480	 -0.785	 -0.335	 -9.409	 -0.202	 -0.082	  0.026	 32.600	 99.096	  0.711
45394	  0.647	  0.305	  0.486	 -1.126	 -0.236	 -8.706	  0.092	  0.016	 -0.013	 32.600	 99.107	 -0.287
45444	  0.651	  0.309	  0.481	 -0.966	 -0.264	 -9.471	  0.331	  0.110	  0.087	 32.600	 99.107	 -0.287
45494	  0.651	  0.313	  0.479	 -0.507	 -0.752	 -9.939	  0.342	  0.058	  0.015	 32.600	 99.096	  0.711
45544	  0.656	  0.316	  0.469	 -0.786	 -0.866	 -9.647	  0.261	 -0.029	  0.021	 32.600	 99.103	  0.076
45594	  0.659	  0.321	  0.460	 -1.076	 -1.090	 -10.366	  0.074	  0.033	  0.191	 32.600	 99.107	 -0.287
45644	  0.657	  0.322	  0.462	 -0.462	 -0.871	 -9.884	 -0.022	 -0.064	  0.012	 32.600	 99.107	 -0.287
45694	  0.659	  0.324	  0.453	 -1.061	 -1.408	 -10.144	  0.082	 -0.139	 -0.045	 32.600	 99.096	  0.711
45744	  0.647	  0.331	  0.461	 -0.683	 -1.263	 -9.622	  0.275	  0.292	 -0.096	 32.600	 99.107	 -0.287
45794	  0.637	  0.344	  0.463	 -0.673	 -0.854	 -10.210	  0.024	  0.058	  0.097	 32.600	 99.107	 -0.287
45844	  0.623	  0.341	  0.478	  0.940	 -2.735	 -10.481	 -0.242	  0.336	  0.033	 32.600	 99.091	  1.164
45894	  0.598	  0.364	  0.509	 -0.103	 -1.065	 -8.850	  0.209	  0.466	 -0.551	 32.600	 99.107	 -0.287
45944	  0.576	  0.377	  0.528	 -0.601	 -1.342	 -10.684	 -0.256	  0.111	 -0.046	 32.600	 99.107	 -0.287
45994	  0.547	  0.366	  0.543	 -1.286	 -0.625	 -11.772	 -0.752	  0.376	  0.415	 32.600	 99.107	 -0.287
46044	  0.510	  0.323	  0.567	 -0.465	 -0.944	 -9.826	 -0.785	  0.170	  0.390	 32.600	 99.103	  0.076
46094	  0.486	  0.296	  0.561	 -0.348	  0.085	 -9.806	 -0.352	 -0.484	  0.631	 32.600	 99.107	 -0.287
46144	  0.483	  0.273	  0.530	  0.012	 -0.212	 -10.508	 -0.109	 -0.670	  0.671	 32.700	 99.107	 -0.287
46194	  0.475	  0.250	  0.514	 -0.278	 -0.132	 -9.455	 -0.159	 -0.505	  0.597	 32.600	 99.096	  0.711
46244	  0.465	  0.232	  0.492	 -1.199	  0.590	 -8.866	 -0.460	 -0.401	  0.260	 32.600	 99.107	 -0.287
46293	  0.447	  0.211	  0.489	 -1.655	  1.603	 -7.371	 -0.845	  0.056	  0.083	 32.700	 99.100	  0.348
46343	  0.444	  0.189	  0.484	 -2.444	  1.522	 -6.070	 -0.622	 -0.326	  0.238	 32.600	 99.096	  0.711
46393	  0.452	  0.167	  0.481	 -0.075	  1.359	 -6.761	 -0.546	 -0.063	 -0.452	 32.600	 99.096	  0.711
46443	  0.458	  0.178	  0.480	 -0.001	  2.162	 -8.173	  0.054	  0.062	 -0.756	 32.600	 99.107	 -0.287
46493	  0.467	  0.219	  0.490	 -0.459	  1.304	 -8.635	  0.532	  0.139	 -1.112	 32.600	 99.107	 -0.287
46545	  0.472	  0.264	  0.503	 -1.342	  2.030	 -14.192	  0.072	  0.680	 -0.970	 32.600	 99.107	 -0.287
46593	  0.430	  0.263	  0.542	 -2.370	  0.660	 -11.762	 -1.075	  1.597	 -0.740	 32.600	 99.096	  0.711
46644	  0.407	  0.253	  0.567	 -0.485	  2.288	 -8.593	  0.065	 -0.140	 -0.399	 32.600	 99.107	 -0.287
46694	  0.414	  0.279	  0.563	  0.796	  0.213	 -10.084	  0.396	  0.084	 -0.998	 32.600	 99.096	  0.711
46744	  0.385	  0.307	  0.576	 -0.132	  1.165	 -10.186	  0.082	  0.910	 -1.219	 32.600	 99.096	  0.711
46794	  0.352	  0.331	  0.590	  0.140	  1.443	 -10.183	  0.083	  0.361	 -0.957	 32.600	 99.096	  0.711
46844	  0.339	  0.341	  0.597	 -0.180	  1.562	 -8.469	 -0.052	 -0.424	 -0.652	 32.600	 99.096	  0.711
46894	  0.356	  0.366	  0.587	 -0.685	  0.461	 -9.203	  0.818	 -0.564	 -0.269	 32.600	 99.096	  0.711
46944	  0.384	  0.413	  0.566	 -0.598	 -0.292	 -9.184	  1.726	 -0.167	  0.480	 32.600	 99.096	  0.711
46994	  0.427	  0.446	  0.525	 -0.313	 -0.690	 -10.849	  0.952	 -0.501	  0.413	 32.600	 99.096	  0.711
47044	  0.436	  0.461	  0.512	 -0.148	 -1.362	 -11.713	 -0.232	  0.352	  0.059	 32.600	 99.096	  0.711
47094	  0.430	  0.438	  0.530	 -0.415	 -0.798	 -9.096	 -0.644	  0.119	  0.043	 32.600	 99.107	 -0.287
47144	  0.429	  0.427	  0.537	  0.080	 -0.019	 -10.922	 -0.370	  0.095	  0.110	 32.700	 99.096	  0.711
47194	  0.428	  0.406	  0.551	 -0.434	  0.323	 -9.322	 -0.415	 -0.062	  0.271	 32.600	 99.084	  1.800
47244	  0.435	  0.386	  0.550	  0.126	 -0.229	 -10.140	 -0.252	  0.066	  0.394	 32.600	 99.107	 -0.287
47294	  0.439	  0.375	  0.551	 -0.300	  0.049	 -9.418	 -0.240	 -0.102	  0.328	 32.600	 99.096	  0.711
47344	  0.452	  0.355	  0.547	 -0.548	  0.042	 -10.080	 -0.051	 -0.254	  0.520	 32.700	 99.096	  0.711
47394	  0.458	  0.346	  0.539	 -0.120	  0.334	 -9.960	 -0.139	 -0.181	  0.270	 32.600	 99.096	  0.711
47444	  0.469	  0.334	  0.535	 -0.987	  0.946	 -9.788	 -0.056	 -0.173	  0.291	 32.700	 99.096	  0.711
47494	  0.468	  0.323	  0.529	 -0.461	  1.287	 -10.354	 -0.102	 -0.001	  0.432	 32.700	 99.100	  0.348
47544	  0.469	  0.302	  0.535	  0.431	  0.847	 -9.971	 -0.388	  0.046	  0.160	 32.600	 99.096	  0.711
47594	  0.465	  0.286	  0.543	 -0.036	  1.199	 -9.233	 -0.299	  0.013	  0.085	 32.600	 99.107	 -0.287
47644	  0.465	  0.276	  0.551	  0.132	  0.504	 -8.902	  0.029	 -0.178	  0.050	 32.600	 99.096	  0.711
47694	  0.472	  0.279	  0.553	 -1.226	  0.747	 -10.400	 -0.008	 -0.202	 -0.067	 32.600	 99.107	 -0.287
47744	  0.472	  0.271	  0.560	 -0.933	  0.410	 -10.109	 -0.190	 -0.064	  0.345	 32.600	 99.107	 -0.287
47794	  0.474	  0.252	  0.563	  0.018	  0.056	 -9.819	 -0.196	 -0.238	  0.380	 32.600	 99.096	  0.711
47844	  0.478	  0.239	  0.565	 -0.327	  0.302	 -10.604	 -0.124	 -0.204	  0.416	 32.600	 99.096	  0.711
47894	  0.470	  0.222	  0.570	 -0.861	  0.323	 -11.112	 -0.173	 -0.209	  0.430	 32.600	 99.096	  0.711
47944	  0.455	  0.208	  0.557	 -1.480	  0.590	 -11.203	 -0.196	 -0.380	  0.631	 32.600	 99.096	  0.711
47994	  0.443	  0.186	  0.539	 -0.685	  0.366	 -11.186	 -0.339	 -0.508	  0.756	 32.600	 99.096	  0.711
48044	  0.432	  0.162	  0.516	 -0.979	  0.534	 -10.545	 -0.414	 -0.781	  0.771	 32.600	 99.096	  0.711
48094	  0.422	  0.137	  0.483	 -0.922	  0.716	 -9.356	 -0.215	 -0.997	  0.801	 32.600	 99.096	  0.711
48144	  0.425	  0.118	  0.448	 -1.611	  0.932	 -9.533	  0.000	 -1.011	  1.037	 32.600	 99.107	 -0.287
48194	  0.425	  0.099	  0.411	 -2.050	  1.136	 -9.181	  0.012	 -0.875	  1.211	 32.600	 99.084	  1.800
48244	  0.426	  0.074	  0.377	 -2.267	  1.217	 -8.553	  0.128	 -0.963	  1.514	 32.600	 99.096	  0.711
48294	  0.425	  0.055	  0.341	 -2.195	  1.402	 -8.853	  0.266	 -0.941	  1.643	 32.600	 99.096	  0.711
48344	  0.430	  0.032	  0.310	 -2.685	  1.588	 -8.252	  0.505	 -0.956	  1.584	 32.700	 99.100	  0.348
48394	  0.433	  0.018	  0.278	 -3.652	  1.395	 -8.369	  0.413	 -1.048	  1.776	 32.600	 99.084	  1.800
48444	  0.434	 -0.008	  0.247	 -3.280	  1.903	 -7.120	  0.437	 -0.834	  2.151	 32.600	 99.091	  1.164
48494	  0.431	 -0.044	  0.217	 -2.453	  1.927	 -6.727	  0.716	 -0.818	  2.091	 32.600	 99.096	  0.711
48544	  0.424	 -0.073	  0.191	 -2.877	  2.260	 -7.516	  0.776	 -0.726	  2.037	 32.700	 99.100	  0.348
48594	  0.414	 -0.099	  0.181	 -2.790	  2.453	 -7.247	  0.608	 -0.427	  2.026	 32.600	 99.096	  0.711
48644	  0.400	 -0.127	  0.168	 -3.097	  2.998	 -6.935	  0.721	 -0.350	  1.934	 32.600	 99.096	  0.711
48694	  0.382	 -0.153	  0.162	 -3.187	  3.714	 -7.736	  0.535	 -0.130	  2.056	 32.600	 99.096	  0.711
48744	  0.361	 -0.184	  0.154	 -2.948	  4.300	 -7.410	  0.446	  0.043	  1.961	 32.600	 99.107	 -0.287
48794	  0.333	 -0.213	  0.160	 -2.226	  4.541	 -8.306	  0.601	 -0.038	  2.082	 32.600	 99.096	  0.711
48844	  0.309	 -0.227	  0.155	 -1.040	  4.241	 -8.883	  0.190	 -0.035	  1.699	 32.700	 99.084	  1.800
48894	  0.280	 -0.256	  0.151	 -1.355	  4.210	 -9.134	 -0.021	 -0.290	  1.567	 32.600	 99.084	  1.800
48944	  0.262	 -0.273	  0.142	 -1.544	  4.242	 -9.211	  0.090	 -0.245	  1.223	 32.600	 99.107	 -0.287
48994	  0.242	 -0.281	  0.144	 -1.097	  3.649	 -10.373	  0.585	 -0.221	  1.106	 32.600	 99.096	  0.711
49044	  0.230	 -0.284	  0.148	 -1.512	  2.876	 -11.378	  0.395	 -0.331	  0.843	 32.600	 99.096	  0.711
49094	  0.215	 -0.289	  0.149	 -1.420	  2.902	 -11.782	  0.417	 -0.028	  1.004	 32.700	 99.111	 -0.650
49144	  0.195	 -0.288	  0.157	 -0.445	  1.847	 -11.931	  0.492	  0.032	  1.068	 32.600	 99.107	 -0.287
49194	  0.183	 -0.288	  0.167	 -0.888	  1.056	 -11.974	  0.697	 -0.077	  0.704	 32.600	 99.107	 -0.287
49244	  0.169	 -0.286	  0.179	 -1.011	  2.415	 -11.892	  0.584	  0.061	  1.235	 32.600	 99.096	  0.711
49294	  0.149	 -0.283	  0.189	  0.046	  0.816	 -11.249	  0.786	  0.257	  0.931	 32.700	 99.100	  0.348
49344	  0.135	 -0.276	  0.203	 -2.357	  3.147	 -11.393	  1.035	 -0.040	  1.371	 32.600	 99.107	 -0.287
49394	  0.111	 -0.264	  0.220	  0.675	  2.225	 -11.627	  0.732	  0.182	  1.419	 32.600	 99.096	  0.711
49444	  0.095	 -0.262	  0.231	 -0.217	  3.156	 -10.217	  0.323	  0.206	  0.811	 32.600	 99.096	  0.711
49494	  0.081	 -0.259	  0.236	  0.394	  3.308	 -9.630	  0.794	  0.364	  0.822	 32.700	 99.100	  0.348
49545	  0.068	 -0.244	  0.251	  0.165	  1.932	 -9.634	  0.786	 -0.249	  0.419	 32.600	 99.084	  1.800
49594	  0.067	 -0.231	  0.258	 -0.006	  2.368	 -9.597	  0.518	 -0.144	  0.542	 32.600	 99.107	 -0.287
49644	  0.065	 -0.231	  0.263	 -0.180	  2.459	 -7.559	  0.194	 -0.020	  0.164	 32.600	 99.096	  0.711
49694	  0.061	 -0.226	  0.267	 -1.205	  2.627	 -8.196	  0.427	  0.112	  0.415	 32.600	 99.096	  0.711
49744	  0.054	 -0.219	  0.272	 -0.058	  2.115	 -8.280	  0.156	  0.024	  0.444	 32.600	 99.084	  1.800
49794	  0.051	 -0.221	  0.276	  0.387	  1.869	 -9.241	  0.106	  0.238	  0.264	 32.600	 99.096	  0.711
49844	  0.049	 -0.214	  0.279	 -0.301	  1.799	 -9.073	 -0.169	 -0.377	 -0.056	 32.600	 99.107	 -0.287
49894	  0.056	 -0.214	  0.283	  0.104	  1.785	 -9.083	 -0.181	 -0.098	 -0.083	 32.600	 99.096	  0.711
49944	  0.063	 -0.219	  0.281	 -0.539	  2.045	 -8.105	 -0.150	 -0.213	 -0.380	 32.600	 99.107	 -0.287
49994	  0.072	 -0.216	  0.279	 -0.419	  1.877	 -8.498	  0.138	 -0.095	 -0.339	 32.600	 99.096	  0.711
50044	  0.075	 -0.215	  0.279	 -0.635	  1.828	 -8.600	 -0.083	 -0.001	 -0.636	 32.600	 99.096	  0.711
50094	  0.080	 -0.209	  0.282	 -1.191	  2.158	 -8.072	  0.128	 -0.045	 -0.665	 32.600	 99.096	  0.711
50144	  0.093	 -0.205	  0.281	 -1.240	  1.900	 -8.871	  0.139	 -0.150	 -0.773	 32.600	 99.096	  0.711
50194	  0.101	 -0.199	  0.280	 -1.666	  1.775	 -8.483	  0.010	 -0.198	 -0.888	 32.600	 99.096	  0.711
50244	  0.110	 -0.188	  0.285	 -2.105	  2.107	 -9.343	  0.178	  0.156	 -0.793	 32.600	 99.096	  0.711
50294	  0.115	 -0.184	  0.284	 -1.789	  1.513	 -9.551	  0.256	 -0.126	 -0.845	 32.600	 99.084	  1.800
50344	  0.123	 -0.174	  0.286	 -1.303	  1.462	 -10.225	  0.266	 -0.240	 -0.738	 32.700	 99.096	  0.711
50394	  0.133	 -0.159	  0.285	 -1.409	  1.860	 -12.120	 -0.061	 -0.288	 -0.932	 32.600	 99.107	 -0.287
50444	  0.140	 -0.161	  0.282	  0.672	  0.624	 -10.746	 -0.295	 -0.267	 -0.763	 32.700	 99.084	  1.800
50494	  0.150	 -0.159	  0.280	  1.050	  0.448	 -11.004	 -0.076	 -0.212	 -1.037	 32.600	 99.096	  0.711
50544	  0.155	 -0.145	  0.278	  1.399	 -0.918	 -11.825	  0.059	  0.198	 -1.128	 32.600	 99.096	  0.711
50594	  0.158	 -0.136	  0.281	  1.506	 -1.256	 -10.751	 -0.393	 -0.040	 -1.229	 32.600	 99.084	  1.800
50644	  0.170	 -0.132	  0.274	  0.604	 -0.924	 -8.688	 -0.383	 -0.260	 -1.506	 32.600	 99.096	  0.711
50694	  0.184	 -0.127	  0.275	 -0.688	 -0.093	 -8.526	 -0.300	 -0.169	 -1.465	 32.600	 99.107	 -0.287
50744	  0.189	 -0.124	  0.273	 -0.351	  0.118	 -8.304	 -0.384	  0.018	 -1.309	 32.600	 99.096	  0.711
50794	  0.193	 -0.118	  0.269	 -0.257	  0.246	 -8.581	 -0.369	  0.127	 -1.364	 32.600	 99.096	  0.711
50844	  0.197	 -0.114	  0.271	 -0.422	  0.377	 -9.034	 -0.382	  0.126	 -1.309	 32.600	 99.107	 -0.287
50894	  0.199	 -0.105	  0.272	  0.166	  0.453	 -9.750	 -0.415	  0.218	 -1.245	 32.600	 99.084	  1.800
50944	  0.201	 -0.101	  0.274	  0.159	  0.453	 -9.502	 -0.522	  0.208	 -1.558	 32.700	 99.100	  0.348
50994	  0.205	 -0.097	  0.269	 -0.785	  1.353	 -9.530	 -0.392	  0.063	 -1.559	 32.700	 99.100	  0.348
51044	  0.208	 -0.089	  0.265	  0.518	  1.630	 -10.760	 -0.373	  0.251	 -1.345	 32.600	 99.096	  0.711
51094	  0.206	 -0.078	  0.267	  1.395	  1.773	 -10.781	 -0.458	  0.275	 -1.663	 32.600	 99.096	  0.711
51144	  0.210	 -0.071	  0.269	  0.709	  1.611	 -10.117	 -0.172	 -0.134	 -1.872	 32.600	 99.096	  0.711
51194	  0.216	 -0.055	  0.264	 -0.395	  2.606	 -10.286	 -0.070	 -0.064	 -1.707	 32.600	 99.107	 -0.287
51244	  0.211	 -0.034	  0.269	  0.748	  1.936	 -10.969	 -0.055	  0.708	 -1.422	 32.600	 99.096	  0.711
51294	  0.199	 -0.027	  0.273	  1.319	  1.363	 -9.123	 -0.482	  0.831	 -1.671	 32.600	 99.107	 -0.287
51344	  0.189	 -0.017	  0.283	 -0.214	  1.937	 -7.655	 -0.236	  0.396	 -1.897	 32.600	 99.096	  0.711
51394	  0.183	 -0.003	  0.285	 -0.960	  2.388	 -8.600	  0.138	  0.068	 -1.520	 32.600	 99.096	  0.711
51444	  0.179	  0.014	  0.284	 -0.661	  1.980	 -9.894	  0.019	  0.215	 -1.371	 32.600	 99.096	  0.711
51494	  0.170	  0.021	  0.287	 -0.749	  1.765	 -9.357	 -0.114	  0.301	 -1.151	 32.600	 99.096	  0.711
51544	  0.159	  0.034	  0.289	 -0.754	  2.259	 -8.935	 -0.063	  0.212	 -0.965	 32.600	 99.107	 -0.287
51594	  0.153	  0.041	  0.291	 -1.088	  2.245	 -8.569	  0.181	 -0.033	 -1.033	 32.600	 99.096	  0.711
51644	  0.150	  0.060	  0.289	 -1.645	  2.205	 -9.588	  0.307	 -0.142	 -0.868	 32.600	 99.096	  0.711
51694	  0.146	  0.063	  0.291	 -1.742	  1.808	 -9.837	  0.290	 -0.064	 -0.724	 32.700	 99.100	  0.348
51744	  0.139	  0.078	  0.291	 -0.934	  1.336	 -11.294	  0.397	  0.249	 -0.339	 32.600	 99.096	  0.711
51794	  0.130	  0.079	  0.294	  0.472	 -0.229	 -10.343	  0.070	  0.171	 -0.542	 32.700	 99.100	  0.348
51844	  0.122	  0.084	  0.299	 -0.786	  0.837	 -10.615	  0.204	  0.275	 -0.479	 32.600	 99.096	  0.711
51894	  0.109	  0.089	  0.301	  0.638	 -0.051	 -11.666	  0.020	  0.470	 -0.158	 32.600	 99.107	 -0.287
51945	  0.099	  0.081	  0.309	  0.641	  0.222	 -10.552	 -0.498	  0.220	 -0.405	 32.600	 99.096	  0.711
51994	  0.092	  0.079	  0.310	 -0.025	  0.669	 -9.184	 -0.394	  0.040	 -0.298	 32.600	 99.107	 -0.287
52044	  0.087	  0.068	  0.312	 -0.008	  0.856	 -9.695	 -0.375	  0.151	 -0.044	 32.600	 99.096	  0.711
52094	  0.083	  0.065	  0.317	  0.432	  0.626	 -8.969	 -0.557	  0.190	 -0.107	 32.600	 99.096	  0.711
52144	  0.072	  0.052	  0.327	 -0.112	  1.448	 -8.356	 -0.533	  0.139	 -0.147	 32.600	 99.096	  0.711
52194	  0.071	  0.042	  0.325	  0.018	  1.267	 -8.317	 -0.342	  0.012	 -0.197	 32.600	 99.096	  0.711
52244	  0.067	  0.035	  0.332	 -0.641	  1.765	 -8.805	 -0.244	 -0.033	 -0.195	 32.600	 99.096	  0.711
52294	  0.061	  0.026	  0.332	 -0.525	  1.612	 -9.800	 -0.283	  0.164	 -0.194	 32.700	 99.096	  0.711
52344	  0.057	  0.020	  0.333	 -0.845	  2.197	 -8.939	 -0.358	 -0.000	 -0.317	 32.700	 99.111	 -0.650
52395	  0.053	  0.022	  0.338	  0.319	  2.127	 -10.335	  0.109	  0.165	 -0.083	 32.600	 99.107	 -0.287
52444	  0.043	  0.015	  0.341	  0.704	  2.262	 -11.667	 -0.416	  0.195	 -0.363	 32.600	 99.096	  0.711
52494	  0.035	  0.005	  0.341	  1.250	  2.554	 -10.766	 -0.071	  0.135	 -0.134	 32.600	 99.096	  0.711
52544	  0.036	  0.014	  0.344	  2.052	  1.830	 -11.064	  0.217	 -0.238	 -0.232	 32.700	 99.096	  0.711
52594	  0.036	  0.020	  0.349	  1.995	  1.653	 -10.781	  0.282	 -0.110	 -0.161	 32.700	 99.111	 -0.650
52644	  0.041	  0.024	  0.352	  1.096	  1.206	 -8.478	  0.004	 -0.341	 -0.296	 32.600	 99.096	  0.711
52695	  0.046	  0.037	  0.355	 -0.136	  1.206	 -8.025	  0.384	 -0.178	 -0.144	 32.700	 99.096	  0.711
52745	  0.049	  0.045	  0.362	 -0.197	  0.564	 -7.836	  0.236	 -0.230	 -0.117	 32.700	 99.096	  0.711
52795	  0.055	  0.053	  0.362	 -1.084	  1.014	 -7.783	  0.190	 -0.316	  0.012	 32.700	 99.100	  0.348
52845	  0.062	  0.063	  0.366	 -0.985	  1.075	 -7.833	  0.195	 -0.281	  0.230	 32.700	 99.111	 -0.650
52895	  0.074	  0.077	  0.369	 -0.544	  1.090	 -8.737	  0.349	 -0.143	  0.472	 32.600	 99.096	  0.711
52945	  0.080	  0.082	  0.374	  0.105	  0.647	 -9.509	  0.358	  0.079	  0.498	 32.600	 99.103	  0.076
52995	  0.084	  0.102	  0.376	  0.101	  0.380	 -9.940	  0.488	  0.209	  0.541	 32.700	 99.100	  0.348
53045	  0.089	  0.116	  0.382	 -0.082	  0.044	 -11.207	  0.404	  0.243	  0.648	 32.600	 99.096	  0.711
53095	  0.092	  0.126	  0.378	  1.559	 -0.684	 -12.026	  0.567	  0.515	  0.872	 32.600	 99.107	 -0.287
53145	  0.088	  0.135	  0.373	  1.649	 -1.590	 -11.682	  0.277	  0.389	  0.457	 32.600	 99.096	  0.711
53195	  0.096	  0.143	  0.375	  0.925	 -1.625	 -11.335	  0.251	  0.181	  0.606	 32.600	 99.107	 -0.287
53245	  0.098	  0.140	  0.376	  0.689	 -1.182	 -9.335	 -0.046	  0.159	  0.464	 32.700	 99.103	  0.076
53295	  0.101	  0.140	  0.369	 -0.101	 -0.442	 -8.464	  0.152	  0.265	  0.500	 32.600	 99.096	  0.711
53345	  0.102	  0.143	  0.368	  0.419	 -0.538	 -8.191	 -0.060	  0.248	  0.468	 32.700	 99.122	 -1.648
53395	  0.105	  0.140	  0.369	  0.206	  0.017	 -8.273	 -0.099	  0.346	  0.383	 32.600	 99.096	  0.711
53445	  0.104	  0.139	  0.366	  0.545	 -0.386	 -9.195	 -0.188	  0.461	  0.365	 32.600	 99.096	  0.711
53495	  0.095	  0.127	  0.368	  0.474	 -0.368	 -10.128	 -0.349	  0.584	  0.246	 32.600	 99.107	 -0.287
53545	  0.090	  0.114	  0.372	  0.645	 -0.160	 -9.726	 -0.474	  0.470	  0.211	 32.700	 99.107	 -0.287
53595	  0.086	  0.108	  0.372	  0.507	 -0.074	 -9.934	 -0.169	  0.200	  0.059	 32.600	 99.096	  0.711
53645	  0.082	  0.100	  0.364	  0.551	 -0.233	 -11.403	 -0.117	  0.185	  0.099	 32.600	 99.096	  0.711
53695	  0.078	  0.091	  0.361	  1.501	 -0.127	 -11.793	 -0.504	  0.183	  0.187	 32.600	 99.096	  0.711
53745	  0.080	  0.081	  0.364	  2.294	  0.132	 -10.405	 -0.582	 -0.068	  0.063	 32.700	 99.111	 -0.650
53795	  0.082	  0.070	  0.360	  1.930	  0.227	 -11.203	  0.134	 -0.015	  0.430	 32.600	 99.096	  0.711
53845	  0.078	  0.067	  0.355	  3.266	 -0.111	 -11.949	 -0.158	  0.323	  0.796	 32.600	 99.096	  0.711
53895	  0.077	  0.062	  0.358	  3.071	  0.251	 -9.065	 -0.440	 -0.137	  0.431	 32.600	 99.107	 -0.287
53945	  0.082	  0.050	  0.354	  2.722	  0.145	 -8.857	  0.225	 -0.597	  0.500	 32.600	 99.107	 -0.287
53995	  0.097	  0.053	  0.352	  1.357	  0.249	 -9.057	 -0.090	 -0.779	  0.362	 32.700	 99.100	  0.348
54045	  0.112	  0.054	  0.353	  0.062	  0.795	 -8.620	 -0.108	 -0.488	  0.545	 32.700	 99.111	 -0.650
54095	  0.116	  0.044	  0.349	  0.624	  0.709	 -8.612	 -0.057	 -0.228	  0.703	 32.600	 99.096	  0.711
54145	  0.123	  0.045	  0.352	 -0.028	  1.105	 -9.131	 -0.074	 -0.403	  0.652	 32.600	 99.096	  0.711
54195	  0.132	  0.035	  0.348	  0.368	  1.069	 -9.660	  0.036	 -0.315	  0.693	 32.600	 99.096	  0.711
54245	  0.138	  0.032	  0.347	  0.486	  0.960	 -9.274	 -0.129	 -0.383	  0.351	 32.700	 99.111	 -0.650
54295	  0.144	  0.026	  0.352	 -0.374	  1.907	 -9.378	  0.076	 -0.418	  0.458	 32.600	 99.096	  0.711
54345	  0.152	  0.030	  0.352	  0.829	  1.055	 -9.859	  0.245	 -0.277	  0.490	 32.600	 99.107	 -0.287
54395	  0.157	  0.027	  0.350	  0.968	  0.421	 -9.956	  0.234	 -0.348	  0.301	 32.700	 99.111	 -0.650
54445	  0.160	  0.032	  0.356	 -0.174	  0.856	 -10.026	  0.220	 -0.247	  0.302	 32.600	 99.096	  0.711
54495	  0.157	  0.029	  0.363	  0.858	  0.431	 -11.323	  0.368	  0.229	  0.646	 32.600	 99.096	  0.711
54545	  0.153	  0.030	  0.371	  2.671	 -0.973	 -10.499	  0.238	  0.117	  0.247	 32.600	 99.096	  0.711
54595	  0.155	  0.027	  0.380	  0.732	 -0.433	 -10.502	 -0.058	 -0.161	 -0.198	 32.600	 99.107	 -0.287
54645	  0.150	  0.013	  0.387	 -0.229	 -0.195	 -8.669	 -0.307	  0.081	 -0.158	 32.600	 99.096	  0.711
54695	  0.145	  0.007	  0.400	 -0.108	  0.297	 -8.356	 -0.100	  0.194	 -0.100	 32.600	 99.096	  0.711
54745	  0.140	 -0.011	  0.411	 -0.126	  0.738	 -7.732	 -0.140	  0.099	 -0.359	 32.600	 99.096	  0.711
54795	  0.137	 -0.015	  0.422	 -0.001	  0.944	 -8.199	  0.153	  0.054	 -0.309	 32.600	 99.096	  0.711
54845	  0.135	 -0.017	  0.439	  0.829	  0.416	 -8.737	  0.242	 -0.116	 -0.546	 32.700	 99.111	 -0.650
54895	  0.139	 -0.022	  0.454	  0.466	  0.833	 -9.588	  0.189	 -0.157	 -0.564	 32.600	 99.096	  0.711
54945	  0.140	 -0.031	  0.481	  0.967	  0.291	 -9.460	  0.137	 -0.053	 -0.857	 32.600	 99.107	 -0.287
54995	  0.151	 -0.038	  0.503	  0.175	  0.962	 -9.686	  0.202	 -0.345	 -1.051	 32.600	 99.107	 -0.287
55045	  0.165	 -0.055	  0.531	  0.880	  0.551	 -10.371	  0.023	 -0.224	 -1.057	 32.700	 99.088	  1.437
55095	  0.185	 -0.072	  0.554	  1.376	  0.625	 -8.926	  0.011	 -0.187	 -1.187	 32.600	 99.107	 -0.287
55145	  0.206	 -0.092	  0.578	  1.293	  0.195	 -10.186	  0.205	 -0.100	 -1.094	 32.600	 99.107	 -0.287
55195	  0.215	 -0.115	  0.597	  1.874	  0.343	 -8.796	  0.184	  0.226	 -0.930	 32.600	 99.107	 -0.287
55245	  0.226	 -0.117	  0.612	  1.658	  0.230	 -8.292	  0.501	 -0.027	 -0.981	 32.600	 99.096	  0.711
55294	  0.239	 -0.103	  0.631	  2.630	 -0.191	 -9.671	  0.549	 -0.072	 -0.754	 32.700	 99.100	  0.348
55344	  0.256	 -0.086	  0.633	  2.607	 -0.623	 -10.201	  0.308	 -0.282	 -0.984	 32.700	 99.100	  0.348
55394	  0.264	 -0.079	  0.639	  2.453	 -0.161	 -10.076	 -0.015	  0.401	 -0.733	 32.700	 99.088	  1.437
55444	  0.261	 -0.073	  0.647	  1.721	 -0.795	 -9.613	 -0.169	  0.232	 -0.513	 32.600	 99.107	 -0.287
55494	  0.273	 -0.069	  0.645	  0.976	 -0.461	 -9.857	 -0.075	 -0.251	 -0.179	 32.600	 99.096	  0.711
55544	  0.292	 -0.066	  0.641	  1.299	 -1.134	 -10.890	 -0.056	 -0.027	  0.079	 32.600	 99.096	  0.711
55594	  0.302	 -0.061	  0.640	  0.972	 -1.525	 -9.909	  0.277	 -0.164	  0.177	 32.600	 99.096	  0.711
55644	  0.325	 -0.048	  0.635	  0.015	 -2.327	 -9.693	  0.367	 -0.617	  0.064	 32.600	 99.096	  0.711
55694	  0.353	 -0.037	  0.618	 -1.486	 -1.992	 -10.272	  0.215	 -0.732	  0.322	 32.600	 99.107	 -0.287
55744	  0.376	 -0.036	  0.604	 -1.099	 -2.222	 -10.682	  0.386	 -0.196	  0.487	 32.600	 99.084	  1.800
55794	  0.377	 -0.028	  0.594	 -0.850	 -1.768	 -10.360	  0.286	  0.212	  0.374	 32.600	 99.096	  0.711
55844	  0.361	 -0.029	  0.590	 -0.530	 -0.827	 -9.747	  0.302	  0.361	  0.597	 32.600	 99.107	 -0.287
55894	  0.352	 -0.034	  0.578	  0.093	 -1.243	 -9.588	  0.170	  0.019	  0.875	 32.600	 99.107	 -0.287
55944	  0.351	 -0.042	  0.578	  0.107	 -1.760	 -9.361	  0.179	 -0.047	  0.856	 32.600	 99.096	  0.711
55994	  0.357	 -0.042	  0.572	 -0.503	 -1.717	 -9.190	  0.175	 -0.122	  0.562	 32.600	 99.107	 -0.287
56044	  0.366	 -0.047	  0.564	 -1.163	 -1.011	 -9.913	  0.032	 -0.384	  0.643	 32.700	 99.096	  0.711
56094	  0.372	 -0.062	  0.555	 -1.556	 -1.169	 -9.948	  0.214	 -0.174	  0.709	 32.600	 99.096	  0.711
56144	  0.374	 -0.059	  0.547	 -1.220	 -2.111	 -9.433	  0.417	 -0.052	  0.649	 32.600	 99.107	 -0.287
56194	  0.377	 -0.060	  0.545	 -1.400	 -1.650	 -9.680	  0.181	 -0.053	  0.424	 32.600	 99.096	  0.711
56244	  0.378	 -0.062	  0.538	 -1.543	 -1.708	 -9.383	  0.263	 -0.148	  0.556	 32.600	 99.096	  0.711
56294	  0.382	 -0.064	  0.532	 -1.361	 -2.294	 -9.202	  0.305	 -0.289	  0.533	 32.600	 99.107	 -0.287
56344	  0.392	 -0.071	  0.520	 -1.875	 -2.534	 -9.891	  0.202	 -0.420	  0.462	 32.600	 99.096	  0.711
56394	  0.400	 -0.077	  0.516	 -2.465	 -2.760	 -9.839	 -0.073	 -0.222	  0.361	 32.600	 99.096	  0.711
56444	  0.392	 -0.087	  0.506	 -2.171	 -2.252	 -9.670	 -0.068	  0.074	  0.452	 32.600	 99.096	  0.711
56494	  0.384	 -0.099	  0.507	 -2.266	 -2.218	 -9.397	 -0.208	  0.173	  0.394	 32.600	 99.084	  1.800
56544	  0.368	 -0.113	  0.509	 -2.204	 -1.830	 -8.981	 -0.210	  0.057	  0.441	 32.600	 99.096	  0.711
56594	  0.363	 -0.121	  0.501	 -2.113	 -1.962	 -8.900	 -0.060	 -0.078	  0.428	 32.700	 99.100	  0.348
56644	  0.364	 -0.133	  0.496	 -2.372	 -1.648	 -9.196	 -0.075	 -0.370	  0.470	 32.600	 99.107	 -0.287
56694	  0.368	 -0.141	  0.480	 -2.435	 -1.645	 -9.126	 -0.088	 -0.429	  0.451	 32.600	 99.096	  0.711
56744	  0.369	 -0.149	  0.471	 -2.456	 -1.441	 -9.436	 -0.046	 -0.164	  0.383	 32.600	 99.096	  0.711
56794	  0.367	 -0.153	  0.466	 -2.496	 -1.518	 -9.459	  0.060	  0.143	  0.284	 32.600	 99.096	  0.711
56844	  0.355	 -0.153	  0.472	 -2.384	 -1.466	 -9.461	  0.083	  0.281	  0.167	 32.700	 99.107	 -0.287
56894	  0.347	 -0.152	  0.474	 -2.322	 -1.544	 -9.314	  0.031	  0.125	  0.115	 32.600	 99.107	 -0.287
56944	  0.343	 -0.157	  0.468	 -2.478	 -1.500	 -9.273	  0.001	 -0.043	  0.047	 32.600	 99.107	 -0.287
56994	  0.345	 -0.154	  0.459	 -2.565	 -1.287	 -9.400	  0.009	 -0.088	  0.091	 32.600	 99.096	  0.711
57044	  0.347	 -0.155	  0.465	 -2.518	 -1.478	 -9.447	  0.017	  0.013	  0.062	 32.600	 99.084	  1.800
57094	  0.342	 -0.158	  0.467	 -2.467	 -1.454	 -9.282	 -0.019	  0.079	  0.017	 32.700	 99.100	  0.348
57144	  0.341	 -0.158	  0.468	 -2.454	 -1.441	 -9.269	  0.027	  0.160	 -0.004	 32.600	 99.096	  0.711
57194	  0.335	 -0.153	  0.470	 -2.344	 -1.423	 -9.222	  0.046	  0.147	 -0.012	 32.600	 99.096	  0.711
57244	  0.334	 -0.151	  0.473	 -2.399	 -1.475	 -9.125	 -0.004	  0.001	 -0.022	 32.600	 99.107	 -0.287
57294	  0.335	 -0.156	  0.467	 -2.513	 -1.622	 -9.277	  0.063	 -0.075	  0.004	 32.600	 99.096	  0.711
57344	  0.340	 -0.155	  0.468	 -2.745	 -1.559	 -9.597	  0.033	 -0.102	  0.103	 32.700	 99.100	  0.348
57394	  0.340	 -0.153	  0.460	 -2.619	 -1.804	 -9.179	 -0.026	 -0.079	  0.166	 32.600	 99.096	  0.711
57444	  0.343	 -0.158	  0.466	 -2.810	 -1.691	 -9.409	  0.003	 -0.132	  0.266	 32.600	 99.107	 -0.287
57494	  0.340	 -0.160	  0.460	 -2.575	 -1.448	 -9.637	 -0.114	 -0.002	  0.351	 32.600	 99.107	 -0.287
57544	  0.333	 -0.168	  0.462	 -2.506	 -1.397	 -9.341	 -0.098	  0.154	  0.227	 32.600	 99.107	 -0.287
57594	  0.325	 -0.176	  0.460	 -2.548	 -1.105	 -9.051	 -0.170	  0.158	  0.184	 32.700	 99.096	  0.711
57644	  0.320	 -0.172	  0.460	 -2.370	 -1.100	 -8.783	  0.122	 -0.007	  0.118	 32.600	 99.096	  0.711
57694	  0.326	 -0.175	  0.454	 -2.573	 -1.201	 -9.415	 -0.012	 -0.248	  0.068	 32.600	 99.096	  0.711
57744	  0.331	 -0.174	  0.453	 -2.644	 -1.146	 -9.356	  0.027	 -0.137	  0.049	 32.600	 99.096	  0.711
57794	  0.333	 -0.177	  0.456	 -2.998	 -1.045	 -9.966	 -0.095	 -0.000	  0.124	 32.600	 99.107	 -0.287
57844	  0.327	 -0.182	  0.455	 -2.719	 -1.157	 -9.639	 -0.237	  0.144	  0.182	 32.600	 99.096	  0.711
57894	  0.321	 -0.191	  0.453	 -2.591	 -1.021	 -9.213	 -0.350	  0.232	  0.202	 32.700	 99.107	 -0.287
57944	  0.310	 -0.203	  0.456	 -2.431	 -0.839	 -9.028	 -0.236	  0.255	  0.200	 32.600	 99.096	  0.711
57994	  0.300	 -0.210	  0.455	 -2.500	 -0.690	 -9.448	 -0.233	  0.155	  0.217	 32.600	 99.107	 -0.287
58045	  0.295	 -0.217	  0.457	 -2.319	 -0.698	 -9.320	 -0.230	  0.187	  0.165	 32.600	 99.096	  0.711
58094	  0.289	 -0.221	  0.453	 -2.507	 -0.407	 -9.457	 -0.245	  0.119	  0.222	 32.600	 99.107	 -0.287
58144	  0.279	 -0.237	  0.448	 -2.083	 -0.357	 -9.193	 -0.249	  0.087	  0.256	 32.600	 99.096	  0.711
58194	  0.278	 -0.242	  0.447	 -1.803	 -0.315	 -8.828	 -0.065	 -0.011	  0.164	 32.600	 99.107	 -0.287
58244	  0.283	 -0.237	  0.451	 -2.028	 -0.084	 -9.755	  0.252	 -0.091	  0.096	 32.600	 99.096	  0.711
58294	  0.289	 -0.236	  0.453	 -2.148	 -0.405	 -9.727	  0.148	 -0.232	  0.068	 32.600	 99.107	 -0.287
58344	  0.295	 -0.229	  0.458	 -2.399	 -0.321	 -9.621	  0.302	  0.031	 -0.057	 32.700	 99.096	  0.711
58395	  0.299	 -0.225	  0.466	 -3.660	  0.175	 -9.558	  0.353	 -0.028	  0.199	 32.600	 99.107	 -0.287
58444	  0.299	 -0.213	  0.463	 -2.038	 -0.990	 -9.294	  0.322	 -0.004	  0.145	 32.600	 99.096	  0.711
58495	  0.300	 -0.214	  0.469	 -2.693	 -0.737	 -9.639	  0.151	  0.077	  0.019	 32.600	 99.107	 -0.287
58545	  0.297	 -0.212	  0.467	 -2.461	 -0.931	 -9.497	  0.012	  0.065	 -0.045	 32.600	 99.096	  0.711
58595	  0.299	 -0.211	  0.471	 -2.226	 -0.748	 -9.147	  0.071	 -0.038	  0.011	 32.600	 99.107	 -0.287
58645	  0.305	 -0.205	  0.472	 -2.001	 -0.857	 -9.004	  0.561	 -0.272	 -0.011	 32.600	 99.096	  0.711
58695	  0.320	 -0.190	  0.469	 -2.376	 -1.045	 -10.271	  0.512	 -0.385	  0.028	 32.600	 99.107	 -0.287
58745	  0.331	 -0.178	  0.474	 -2.090	 -1.482	 -9.835	  0.142	 -0.256	 -0.060	 32.700	 99.096	  0.711
58795	  0.338	 -0.178	  0.470	 -2.826	 -1.366	 -9.495	 -0.108	 -0.146	 -0.252	 32.600	 99.096	  0.711
58845	  0.343	 -0.179	  0.479	 -3.061	 -1.345	 -9.249	 -0.083	 -0.022	 -0.132	 32.600	 99.096	  0.711
58895	  0.343	 -0.176	  0.476	 -3.184	 -1.642	 -9.552	 -0.237	  0.029	 -0.121	 32.600	 99.084	  1.800
58945	  0.340	 -0.180	  0.488	 -3.181	 -1.069	 -9.270	 -0.556	  0.189	 -0.121	 32.600	 99.107	 -0.287
58995	  0.331	 -0.205	  0.485	 -2.683	 -0.921	 -9.005	 -0.482	  0.433	  0.004	 32.600	 99.107	 -0.287
59045	  0.319	 -0.212	  0.495	 -2.057	 -1.030	 -8.208	 -0.138	  0.366	 -0.147	 32.600	 99.096	  0.711
59095	  0.324	 -0.208	  0.501	 -3.422	 -1.040	 -8.730	  0.229	 -0.310	 -0.209	 32.600	 99.096	  0.711
59145	  0.340	 -0.211	  0.490	 -2.847	 -1.262	 -9.922	  0.026	 -0.528	 -0.042	 32.600	 99.096	  0.711
59195	  0.357	 -0.207	  0.488	 -2.415	 -1.103	 -9.266	 -0.141	 -0.363	 -0.185	 32.600	 99.096	  0.711
59245	  0.364	 -0.207	  0.474	 -3.236	 -0.886	 -9.615	  0.018	  0.057	 -0.221	 32.600	 99.107	 -0.287
59295	  0.366	 -0.210	  0.481	 -2.893	 -0.853	 -8.832	  0.013	 -0.041	 -0.142	 32.600	 99.096	  0.711
59345	  0.374	 -0.199	  0.482	 -2.875	 -0.941	 -9.109	  0.287	 -0.054	 -0.200	 32.600	 99.096	  0.711
59395	  0.379	 -0.190	  0.486	 -3.136	 -1.044	 -9.139	  0.211	 -0.053	 -0.125	 32.600	 99.107	 -0.287
59445	  0.382	 -0.187	  0.483	 -2.978	 -1.464	 -9.031	  0.235	 -0.065	 -0.105	 32.600	 99.096	  0.711
59495	  0.388	 -0.174	  0.487	 -2.859	 -1.418	 -9.744	  0.311	  0.059	 -0.226	 32.600	 99.107	 -0.287
59545	  0.392	 -0.170	  0.484	 -2.969	 -1.534	 -7.636	 -0.129	 -0.515	  0.149	 32.600	 99.107	 -0.287
59595	  0.413	 -0.171	  0.472	 -2.598	 -1.848	 -10.645	  0.606	 -0.226	 -0.108	 32.600	 99.091	  1.164
59645	  0.421	 -0.161	  0.473	 -3.183	 -2.493	 -10.087	 -0.122	 -0.187	 -0.199	 32.600	 99.107	 -0.287
59695	  0.427	 -0.159	  0.471	 -3.618	 -1.793	 -7.146	 -0.350	 -0.705	 -0.170	 32.600	 99.107	 -0.287
59744	  0.446	 -0.157	  0.465	 -3.375	 -1.706	 -9.042	  0.114	 -0.327	 -0.104	 32.600	 99.096	  0.711
59794	  0.455	 -0.155	  0.461	 -3.580	 -2.071	 -9.050	 -0.094	 -0.129	 -0.306	 32.600	 99.107	 -0.287
59844	  0.466	 -0.150	  0.461	 -3.792	 -1.353	 -9.136	 -0.219	 -0.022	 -0.301	 32.600	 99.107	 -0.287
59894	  0.468	 -0.154	  0.464	 -3.383	 -1.266	 -8.873	 -0.100	 -0.037	 -0.389	 32.700	 99.100	  0.348
59944	  0.477	 -0.141	  0.466	 -3.303	 -0.920	 -9.131	  0.040	 -0.097	 -0.354	 32.600	 99.096	  0.711
59994	  0.484	 -0.137	  0.467	 -2.875	 -1.763	 -9.671	 -0.162	  0.150	 -0.402	 32.600	 99.107	 -0.287
60044	  0.483	 -0.133	  0.483	 -2.180	 -1.968	 -8.990	 -0.083	  0.717	 -0.596	 32.600	 99.103	  0.076
60094	  0.476	 -0.121	  0.509	 -2.735	 -2.224	 -7.943	  0.054	  0.750	 -0.710	 32.600	 99.096	  0.711
60144	  0.478	 -0.100	  0.530	 -4.169	 -2.742	 -8.649	  0.334	  0.327	 -0.672	 32.600	 99.091	  1.164
60194	  0.480	 -0.085	  0.551	 -3.380	 -2.682	 -9.890	 -0.272	  0.821	 -0.646	 32.600	 99.096	  0.711
60244	  0.463	 -0.084	  0.575	 -1.951	 -2.177	 -8.796	 -0.208	  0.632	 -0.960	 32.600	 99.096	  0.711
60294	  0.458	 -0.059	  0.597	 -1.802	 -1.658	 -8.584	  0.435	  0.617	 -0.589	 32.600	 99.107	 -0.287
60344	  0.465	 -0.043	  0.611	 -1.481	 -2.972	 -9.855	  0.236	  0.023	 -0.457	 32.600	 99.103	  0.076
