Time	 MagX	 MagY	 MagZ	 AccelX	 AccelY	 AccelZ	 Yaw	 Pitch	 Roll	 Temperature	 Pressure	 Altitude
15313	  0.221	 -0.034	  0.321	  0.309	  0.706	 -9.737	 -0.007	 -0.004	 -0.008	 23.300	 98.936	 -99999.000
15363	  0.221	 -0.036	  0.325	  0.273	  0.739	 -9.717	 -0.006	 -0.000	 -0.003	 23.300	 98.924	 -99999.000
15413	  0.221	 -0.036	  0.328	  0.264	  0.766	 -9.708	 -0.004	  0.003	  0.000	 23.300	 98.936	 -99999.000
15463	  0.219	 -0.040	  0.325	  0.306	  0.807	 -9.688	 -0.002	  0.004	  0.005	 23.300	 98.936	 -99999.000
15513	  0.221	 -0.036	  0.327	  0.332	  0.699	 -9.692	 -0.001	  0.006	  0.009	 23.300	 98.936	 -99999.000
15563	  0.221	 -0.029	  0.322	  0.366	  0.716	 -9.681	  0.000	  0.007	  0.009	 23.300	 98.936	 -99999.000
15613	  0.221	 -0.039	  0.328	  0.372	  0.680	 -9.670	 -0.001	  0.004	  0.006	 23.300	 98.936	 -99999.000
15663	  0.221	 -0.030	  0.325	  0.403	  0.696	 -9.718	 -0.005	  0.000	  0.007	 23.300	 98.936	 -99999.000
15713	  0.222	 -0.031	  0.325	  0.375	  0.679	 -9.734	 -0.005	 -0.001	 -0.003	 23.300	 98.936	 -99999.000
15763	  0.221	 -0.035	  0.329	  0.341	  0.719	 -9.749	 -0.005	 -0.003	 -0.007	 23.300	 98.936	 -99999.000
15813	  0.223	 -0.033	  0.326	  0.281	  0.757	 -9.714	 -0.006	 -0.001	 -0.000	 23.300	 98.936	 -99999.000
15863	  0.221	 -0.035	  0.325	  0.297	  0.720	 -9.748	 -0.005	  0.001	 -0.002	 23.300	 98.931	 -99999.000
15913	  0.221	 -0.035	  0.328	  0.279	  0.779	 -9.711	 -0.004	  0.004	  0.005	 23.300	 98.936	 -99999.000
15963	  0.221	 -0.041	  0.337	  0.265	  0.757	 -9.701	 -0.002	  0.006	  0.000	 23.300	 98.936	 -99999.000
16013	  0.220	 -0.034	  0.327	  0.351	  0.701	 -9.694	 -0.001	  0.005	  0.013	 23.300	 98.936	 -99999.000
16063	  0.221	 -0.031	  0.329	  0.359	  0.690	 -9.737	 -0.003	  0.004	  0.004	 23.300	 98.936	 -99999.000
16113	  0.221	 -0.036	  0.325	  0.369	  0.683	 -9.739	 -0.004	  0.004	  0.002	 23.300	 98.924	 -99999.000
16163	  0.223	 -0.036	  0.324	  0.384	  0.659	 -9.706	 -0.005	  0.000	  0.004	 23.300	 98.936	 -99999.000
16213	  0.222	 -0.029	  0.324	  0.326	  0.720	 -9.709	 -0.005	 -0.001	 -0.003	 23.300	 98.936	 -99999.000
16263	  0.224	 -0.036	  0.328	  0.300	  0.716	 -9.731	 -0.005	  0.001	 -0.003	 23.300	 98.924	 -99999.000
16313	  0.222	 -0.034	  0.326	  0.300	  0.740	 -9.735	 -0.005	  0.002	  0.005	 23.300	 98.936	 -99999.000
16363	  0.221	 -0.036	  0.327	  0.312	  0.712	 -9.733	 -0.004	  0.003	 -0.003	 23.300	 98.924	 -99999.000
16413	  0.218	 -0.036	  0.326	  0.309	  0.760	 -9.718	 -0.003	  0.004	  0.002	 23.300	 98.936	 -99999.000
16463	  0.224	 -0.036	  0.326	  0.319	  0.709	 -9.717	 -0.003	  0.004	  0.009	 23.300	 98.936	 -99999.000
16513	  0.223	 -0.038	  0.327	  0.382	  0.696	 -9.734	 -0.003	  0.004	  0.001	 23.300	 98.936	 -99999.000
16563	  0.221	 -0.035	  0.329	  0.319	  0.692	 -9.725	 -0.004	  0.002	  0.004	 23.300	 98.931	 -99999.000
16613	  0.220	 -0.037	  0.329	  0.358	  0.703	 -9.712	 -0.004	  0.001	  0.005	 23.300	 98.936	 -99999.000
16663	  0.219	 -0.036	  0.329	  0.329	  0.721	 -9.700	 -0.004	 -0.001	 -0.000	 23.300	 98.924	 -99999.000
16713	  0.221	 -0.038	  0.326	  0.278	  0.726	 -9.707	 -0.006	  0.001	  0.001	 23.300	 98.936	 -99999.000
16763	  0.221	 -0.035	  0.325	  0.343	  0.710	 -9.737	 -0.003	 -0.000	  0.003	 23.300	 98.936	 -99999.000
16813	  0.221	 -0.034	  0.320	  0.321	  0.737	 -9.748	 -0.003	  0.001	 -0.003	 23.300	 98.936	 -99999.000
16863	  0.222	 -0.034	  0.329	  0.285	  0.769	 -9.743	 -0.003	  0.004	  0.005	 23.300	 98.924	 -99999.000
16913	  0.220	 -0.032	  0.327	  0.356	  0.704	 -9.712	 -0.002	  0.005	  0.007	 23.300	 98.947	 -99999.000
16963	  0.221	 -0.036	  0.327	  0.318	  0.711	 -9.716	 -0.002	  0.004	  0.001	 23.300	 98.929	 -99999.000
17013	  0.221	 -0.035	  0.328	  0.340	  0.705	 -9.718	 -0.003	  0.004	  0.003	 23.300	 98.936	 -99999.000
17063	  0.220	 -0.039	  0.335	  0.366	  0.681	 -9.737	 -0.005	  0.003	  0.004	 23.300	 98.924	 -99999.000
17113	  0.224	 -0.035	  0.329	  0.349	  0.702	 -9.709	 -0.005	  0.002	 -0.001	 23.300	 98.940	 -99999.000
17163	  0.220	 -0.032	  0.327	  0.338	  0.717	 -9.703	 -0.006	  0.002	 -0.001	 23.300	 98.936	 -99999.000
17213	  0.222	 -0.035	  0.325	  0.341	  0.724	 -9.693	 -0.005	  0.001	  0.002	 23.300	 98.936	 -99999.000
17263	  0.220	 -0.038	  0.324	  0.312	  0.756	 -9.744	 -0.003	  0.002	 -0.001	 23.300	 98.931	 -99999.000
17313	  0.220	 -0.036	  0.327	  0.307	  0.740	 -9.737	 -0.003	  0.002	  0.006	 23.300	 98.924	 -99999.000
17363	  0.222	 -0.034	  0.329	  0.321	  0.715	 -9.695	 -0.002	  0.003	  0.004	 23.300	 98.947	 -99999.000
17413	  0.220	 -0.035	  0.324	  0.314	  0.698	 -9.741	 -0.002	  0.003	  0.003	 23.300	 98.936	 -99999.000
17463	  0.220	 -0.039	  0.325	  0.322	  0.730	 -9.730	 -0.004	  0.003	  0.004	 23.300	 98.936	 -99999.000
17513	  0.219	 -0.035	  0.325	  0.365	  0.668	 -9.714	 -0.005	  0.004	  0.005	 23.300	 98.936	 -99999.000
17563	  0.220	 -0.037	  0.325	  0.335	  0.736	 -9.735	 -0.005	  0.003	  0.000	 23.300	 98.936	 -99999.000
17613	  0.220	 -0.036	  0.329	  0.331	  0.720	 -9.689	 -0.004	  0.001	  0.001	 23.300	 98.936	 -99999.000
17663	  0.220	 -0.034	  0.325	  0.343	  0.728	 -9.755	 -0.004	  0.002	  0.002	 23.300	 98.936	 -99999.000
17713	  0.221	 -0.033	  0.326	  0.346	  0.719	 -9.662	 -0.004	  0.002	 -0.001	 23.300	 98.940	 -99999.000
17763	  0.219	 -0.035	  0.326	  0.321	  0.741	 -9.698	 -0.002	  0.001	  0.001	 23.300	 98.936	 -99999.000
17813	  0.220	 -0.038	  0.330	  0.329	  0.693	 -9.714	 -0.003	  0.001	  0.006	 23.300	 98.947	 -99999.000
17863	  0.222	 -0.036	  0.328	  0.333	  0.717	 -9.750	 -0.003	  0.003	  0.002	 23.300	 98.940	 -99999.000
17913	  0.220	 -0.038	  0.324	  0.335	  0.719	 -9.697	 -0.003	  0.002	  0.003	 23.300	 98.936	 -99999.000
17963	  0.222	 -0.034	  0.329	  0.319	  0.699	 -9.683	 -0.002	  0.004	  0.005	 23.300	 98.940	 -99999.000
18013	  0.219	 -0.037	  0.322	  0.339	  0.710	 -9.744	 -0.003	  0.003	  0.000	 23.300	 98.936	 -99999.000
18063	  0.222	 -0.033	  0.322	  0.362	  0.710	 -9.761	 -0.004	  0.003	 -0.002	 23.300	 98.924	 -99999.000
18112	  0.222	 -0.038	  0.327	  0.340	  0.690	 -9.693	 -0.005	  0.001	  0.003	 23.300	 98.936	 -99999.000
18162	  0.222	 -0.037	  0.326	  0.345	  0.720	 -9.712	 -0.003	  0.001	 -0.003	 23.300	 98.936	 -99999.000
18212	  0.221	 -0.040	  0.328	  0.301	  0.715	 -9.726	 -0.002	  0.001	  0.004	 23.300	 98.936	 -99999.000
18262	  0.220	 -0.038	  0.320	  0.319	  0.716	 -9.742	 -0.003	  0.002	 -0.001	 23.300	 98.936	 -99999.000
18313	  0.223	 -0.031	  0.325	  0.305	  0.724	 -9.748	 -0.003	  0.003	  0.005	 23.300	 98.936	 -99999.000
18362	  0.222	 -0.037	  0.328	  0.327	  0.715	 -9.724	 -0.003	  0.004	  0.008	 23.300	 98.936	 -99999.000
18412	  0.219	 -0.033	  0.327	  0.349	  0.694	 -9.702	 -0.002	  0.005	  0.001	 23.300	 98.947	 -99999.000
18462	  0.223	 -0.035	  0.323	  0.344	  0.705	 -9.713	 -0.004	  0.002	  0.004	 23.300	 98.924	 -99999.000
18513	  0.221	 -0.038	  0.327	  0.353	  0.698	 -9.737	 -0.004	  0.003	  0.002	 23.300	 98.936	 -99999.000
18563	  0.223	 -0.039	  0.327	  0.340	  0.717	 -9.729	 -0.005	 -0.000	 -0.003	 23.300	 98.936	 -99999.000
18612	  0.221	 -0.038	  0.330	  0.322	  0.751	 -9.719	 -0.003	  0.002	  0.001	 23.300	 98.936	 -99999.000
18663	  0.221	 -0.038	  0.328	  0.320	  0.709	 -9.710	 -0.003	  0.001	  0.005	 23.300	 98.936	 -99999.000
18713	  0.220	 -0.035	  0.328	  0.288	  0.761	 -9.724	 -0.003	  0.003	 -0.002	 23.300	 98.940	 -99999.000
18763	  0.222	 -0.039	  0.327	  0.322	  0.718	 -9.719	 -0.002	  0.001	  0.006	 23.300	 98.940	 -99999.000
18813	  0.222	 -0.034	  0.325	  0.356	  0.718	 -9.713	 -0.004	  0.004	  0.007	 23.300	 98.936	 -99999.000
18863	  0.221	 -0.036	  0.326	  0.356	  0.702	 -9.722	 -0.002	  0.006	 -0.002	 23.300	 98.924	 -99999.000
18913	  0.222	 -0.034	  0.322	  0.352	  0.702	 -9.727	 -0.004	  0.002	  0.008	 23.300	 98.924	 -99999.000
18963	  0.220	 -0.036	  0.326	  0.373	  0.695	 -9.726	 -0.003	  0.001	 -0.003	 23.300	 98.936	 -99999.000
19013	  0.221	 -0.034	  0.328	  0.357	  0.717	 -9.723	 -0.004	  0.001	  0.001	 23.300	 98.947	 -99999.000
19063	  0.222	 -0.035	  0.327	  0.289	  0.733	 -9.738	 -0.003	  0.001	  0.001	 23.300	 98.936	 -99999.000
19113	  0.222	 -0.036	  0.328	  0.334	  0.700	 -9.731	 -0.004	  0.001	  0.002	 23.300	 98.936	 -99999.000
19163	  0.222	 -0.037	  0.326	  0.222	  0.752	 -9.741	 -0.002	  0.003	  0.003	 23.300	 98.936	 -99999.000
19213	  0.222	 -0.037	  0.326	  0.341	  0.728	 -9.732	 -0.002	  0.004	  0.002	 23.300	 98.940	 -99999.000
19263	  0.220	 -0.031	  0.329	  0.329	  0.704	 -9.739	 -0.002	  0.004	  0.007	 23.300	 98.940	 -99999.000
19313	  0.224	 -0.032	  0.330	  0.307	  0.720	 -9.730	 -0.003	  0.003	  0.004	 23.300	 98.936	 -99999.000
19363	  0.220	 -0.036	  0.327	  0.385	  0.675	 -9.709	 -0.001	  0.003	  0.002	 23.300	 98.936	 -99999.000
19413	  0.219	 -0.040	  0.325	  0.364	  0.714	 -9.742	 -0.005	  0.002	  0.007	 23.300	 98.924	 -99999.000
19463	  0.222	 -0.038	  0.325	  0.337	  0.718	 -9.736	 -0.005	  0.001	 -0.005	 23.300	 98.936	 -99999.000
19513	  0.219	 -0.035	  0.328	  0.385	  0.694	 -9.703	 -0.006	  0.000	 -0.003	 23.300	 98.940	 -99999.000
19563	  0.221	 -0.037	  0.324	  0.288	  0.769	 -9.764	 -0.003	  0.001	  0.004	 23.300	 98.936	 -99999.000
19613	  0.222	 -0.036	  0.325	  0.282	  0.757	 -9.717	 -0.003	  0.003	  0.000	 23.300	 98.947	 -99999.000
19663	  0.220	 -0.035	  0.328	  0.353	  0.709	 -9.755	 -0.003	  0.004	  0.001	 23.300	 98.924	 -99999.000
19713	  0.221	 -0.031	  0.326	  0.305	  0.726	 -9.721	 -0.003	  0.003	  0.010	 23.300	 98.936	 -99999.000
19763	  0.219	 -0.035	  0.326	  0.333	  0.708	 -9.724	 -0.002	  0.005	  0.003	 23.300	 98.936	 -99999.000
19813	  0.221	 -0.036	  0.333	  0.375	  0.678	 -9.716	 -0.003	  0.005	  0.003	 23.300	 98.929	 -99999.000
19863	  0.221	 -0.037	  0.330	  0.319	  0.689	 -9.697	 -0.003	  0.002	  0.006	 23.300	 98.947	 -99999.000
19913	  0.222	 -0.034	  0.328	  0.370	  0.698	 -9.709	 -0.004	  0.001	 -0.004	 23.300	 98.936	 -99999.000
19963	  0.220	 -0.033	  0.331	  0.369	  0.726	 -9.680	 -0.005	  0.001	  0.002	 23.300	 98.940	 -99999.000
20013	  0.221	 -0.031	  0.329	  0.293	  0.709	 -9.721	 -0.005	 -0.000	  0.001	 23.300	 98.951	 -99999.000
20063	  0.221	 -0.036	  0.327	  0.314	  0.697	 -9.751	 -0.004	  0.001	 -0.002	 23.300	 98.940	 -99999.000
20113	  0.223	 -0.033	  0.327	  0.313	  0.732	 -9.771	 -0.003	  0.003	  0.004	 23.300	 98.936	 -99999.000
20163	  0.221	 -0.036	  0.329	  0.302	  0.735	 -9.751	 -0.004	  0.004	  0.004	 23.300	 98.947	 -99999.000
20213	  0.221	 -0.030	  0.324	  0.321	  0.710	 -9.716	 -0.002	  0.005	  0.002	 23.300	 98.940	 -99999.000
20263	  0.221	 -0.036	  0.329	  0.351	  0.721	 -9.713	 -0.001	  0.004	  0.007	 23.300	 98.936	 -99999.000
20313	  0.222	 -0.034	  0.327	  0.348	  0.670	 -9.656	 -0.002	  0.004	  0.006	 23.300	 98.940	 -99999.000
20363	  0.221	 -0.035	  0.331	  0.364	  0.704	 -9.701	 -0.004	  0.002	  0.003	 23.300	 98.940	 -99999.000
20413	  0.222	 -0.034	  0.327	  0.343	  0.705	 -9.713	 -0.004	  0.000	  0.003	 23.300	 98.936	 -99999.000
20463	  0.221	 -0.039	  0.338	  0.358	  0.695	 -9.740	 -0.005	  0.000	 -0.000	 23.300	 98.936	 -99999.000
20513	  0.220	 -0.036	  0.329	  0.310	  0.723	 -9.750	 -0.005	  0.000	 -0.001	 23.300	 98.924	 -99999.000
20563	  0.220	 -0.043	  0.329	  0.296	  0.728	 -9.722	 -0.004	 -0.001	  0.000	 23.300	 98.940	 -99999.000
20613	  0.221	 -0.037	  0.335	  0.300	  0.727	 -9.701	 -0.004	  0.002	  0.003	 23.300	 98.936	 -99999.000
20663	  0.221	 -0.030	  0.326	  0.327	  0.750	 -9.714	 -0.003	  0.003	  0.003	 23.300	 98.929	 -99999.000
20713	  0.223	 -0.037	  0.330	  0.351	  0.726	 -9.744	 -0.002	  0.004	  0.004	 23.300	 98.936	 -99999.000
20763	  0.222	 -0.036	  0.328	  0.350	  0.705	 -9.699	 -0.002	  0.002	  0.005	 23.300	 98.940	 -99999.000
20813	  0.223	 -0.040	  0.331	  0.348	  0.693	 -9.707	 -0.003	  0.002	  0.005	 23.300	 98.940	 -99999.000
20863	  0.219	 -0.037	  0.328	  0.375	  0.665	 -9.718	 -0.003	  0.002	 -0.002	 23.300	 98.940	 -99999.000
20913	  0.220	 -0.038	  0.336	  0.323	  0.721	 -9.726	 -0.005	  0.001	  0.002	 23.300	 98.940	 -99999.000
20963	  0.222	 -0.031	  0.331	  0.351	  0.696	 -9.723	 -0.003	  0.001	 -0.000	 23.300	 98.951	 -99999.000
21013	  0.220	 -0.031	  0.333	  0.338	  0.733	 -9.703	 -0.004	  0.001	 -0.002	 23.300	 98.924	 -99999.000
21063	  0.222	 -0.035	  0.336	  0.292	  0.741	 -9.749	 -0.003	  0.002	  0.005	 23.300	 98.936	 -99999.000
21113	  0.221	 -0.033	  0.337	  0.302	  0.693	 -9.742	 -0.003	  0.003	  0.003	 23.300	 98.924	 -99999.000
21163	  0.220	 -0.037	  0.336	  0.320	  0.713	 -9.718	 -0.003	  0.004	  0.002	 23.300	 98.936	 -99999.000
21213	  0.219	 -0.032	  0.331	  0.325	  0.707	 -9.680	 -0.002	  0.004	  0.007	 23.300	 98.924	 -99999.000
21263	  0.219	 -0.036	  0.335	  0.384	  0.667	 -9.738	 -0.003	  0.002	  0.002	 23.300	 98.936	 -99999.000
40962	  0.225	 -0.031	  0.328	  0.271	  0.678	 -9.735	  0.000	  0.006	  0.017	 23.400	 98.933	  0.298
41012	  0.225	 -0.034	  0.324	  0.431	  0.749	 -9.716	  0.002	  0.007	  0.003	 23.400	 98.933	  0.298
41063	  0.223	 -0.030	  0.326	  0.359	  0.653	 -9.755	 -0.002	  0.001	  0.012	 23.400	 98.937	 -0.054
41113	  0.226	 -0.032	  0.327	  0.428	  0.653	 -9.731	 -0.002	  0.001	  0.004	 23.400	 98.933	  0.298
41163	  0.225	 -0.030	  0.325	  0.309	  0.650	 -9.728	 -0.005	 -0.001	 -0.007	 23.400	 98.926	  0.915
41213	  0.224	 -0.031	  0.326	  0.365	  0.712	 -9.723	 -0.006	 -0.001	 -0.003	 23.400	 98.933	  0.298
41263	  0.227	 -0.033	  0.327	  0.232	  0.744	 -9.711	 -0.006	  0.002	 -0.006	 23.400	 98.937	 -0.054
41313	  0.225	 -0.028	  0.325	  0.313	  0.724	 -9.687	 -0.005	  0.003	 -0.008	 23.400	 98.933	  0.298
41363	  0.224	 -0.028	  0.328	  0.243	  0.788	 -9.718	 -0.004	  0.006	  0.010	 23.400	 98.937	 -0.054
41413	  0.226	 -0.031	  0.327	  0.390	  0.720	 -9.686	 -0.001	  0.006	  0.005	 23.400	 98.944	 -0.672
41463	  0.226	 -0.026	  0.326	  0.303	  0.755	 -9.731	 -0.000	  0.004	 -0.010	 23.400	 98.933	  0.298
41513	  0.226	 -0.035	  0.324	  0.346	  0.727	 -9.713	  0.000	  0.003	  0.016	 23.400	 98.948	 -1.024
41563	  0.226	 -0.030	  0.325	  0.438	  0.599	 -9.695	 -0.003	  0.002	  0.010	 23.400	 98.944	 -0.672
41613	  0.226	 -0.033	  0.326	  0.339	  0.648	 -9.733	 -0.007	  0.001	 -0.024	 23.400	 98.937	 -0.054
41663	  0.227	 -0.035	  0.323	  0.253	  0.778	 -9.740	 -0.008	  0.000	  0.002	 23.400	 98.933	  0.298
41713	  0.227	 -0.031	  0.325	  0.408	  0.625	 -9.749	 -0.009	  0.002	  0.005	 23.400	 98.933	  0.298
41763	  0.227	 -0.032	  0.325	  0.345	  0.769	 -9.680	 -0.006	  0.002	 -0.027	 23.400	 98.944	 -0.672
41813	  0.227	 -0.030	  0.319	  0.252	  0.837	 -9.716	 -0.003	  0.002	 -0.003	 23.400	 98.944	 -0.672
41863	  0.224	 -0.033	  0.325	  0.365	  0.753	 -9.709	  0.001	  0.003	  0.024	 23.400	 98.944	 -0.672
41913	  0.227	 -0.033	  0.326	  0.353	  0.708	 -9.705	  0.001	  0.003	 -0.001	 23.400	 98.948	 -1.024
41963	  0.225	 -0.031	  0.327	  0.218	  0.792	 -9.740	 -0.001	  0.004	  0.031	 23.400	 98.933	  0.298
42013	  0.226	 -0.033	  0.324	  0.365	  0.618	 -9.734	 -0.003	  0.004	  0.044	 23.400	 98.948	 -1.024
42063	  0.226	 -0.034	  0.326	  0.432	  0.552	 -9.747	 -0.005	  0.005	 -0.015	 23.400	 98.933	  0.298
42113	  0.227	 -0.036	  0.324	  0.248	  0.813	 -9.743	 -0.007	  0.004	 -0.002	 23.400	 98.933	  0.298
42163	  0.223	 -0.030	  0.324	  0.367	  0.709	 -9.729	 -0.006	  0.004	  0.021	 23.400	 98.944	 -0.672
42213	  0.225	 -0.031	  0.323	  0.417	  0.697	 -9.686	 -0.006	  0.002	 -0.017	 23.400	 98.944	 -0.672
42263	  0.227	 -0.032	  0.324	  0.281	  0.800	 -9.731	 -0.004	 -0.000	 -0.004	 23.400	 98.937	 -0.054
42313	  0.224	 -0.027	  0.323	  0.372	  0.666	 -9.712	 -0.004	  0.001	  0.002	 23.400	 98.926	  0.915
42363	  0.225	 -0.029	  0.325	  0.324	  0.728	 -9.695	 -0.003	  0.001	 -0.020	 23.400	 98.922	  1.268
42413	  0.223	 -0.032	  0.326	  0.247	  0.793	 -9.746	 -0.003	  0.001	  0.006	 23.400	 98.937	 -0.054
42463	  0.226	 -0.025	  0.322	  0.321	  0.666	 -9.744	 -0.002	  0.003	  0.002	 23.400	 98.937	 -0.054
42513	  0.226	 -0.032	  0.326	  0.317	  0.720	 -9.726	 -0.003	  0.004	 -0.008	 23.400	 98.948	 -1.024
42563	  0.226	 -0.035	  0.325	  0.347	  0.725	 -9.758	 -0.005	  0.002	  0.016	 23.400	 98.937	 -0.054
42613	  0.225	 -0.035	  0.326	  0.377	  0.717	 -9.757	 -0.005	  0.002	  0.005	 23.400	 98.933	  0.298
42663	  0.224	 -0.034	  0.324	  0.347	  0.708	 -9.756	 -0.004	  0.001	 -0.009	 23.400	 98.944	 -0.672
42713	  0.222	 -0.035	  0.327	  0.296	  0.783	 -9.669	 -0.003	  0.001	  0.005	 23.400	 98.933	  0.298
42763	  0.225	 -0.031	  0.326	  0.335	  0.712	 -9.761	 -0.002	  0.002	  0.001	 23.400	 98.944	 -0.672
42813	  0.226	 -0.034	  0.326	  0.324	  0.742	 -9.718	 -0.002	  0.003	  0.004	 23.400	 98.937	 -0.054
42863	  0.226	 -0.024	  0.322	  0.283	  0.745	 -9.741	 -0.002	  0.003	  0.011	 23.400	 98.944	 -0.672
42913	  0.227	 -0.032	  0.329	  0.306	  0.696	 -9.731	 -0.002	  0.005	  0.005	 23.400	 98.933	  0.298
42963	  0.224	 -0.035	  0.324	  0.346	  0.656	 -9.735	 -0.004	  0.003	  0.001	 23.400	 98.948	 -1.024
43013	  0.225	 -0.031	  0.324	  0.371	  0.668	 -9.736	 -0.005	  0.002	 -0.002	 23.400	 98.933	  0.298
43063	  0.224	 -0.031	  0.326	  0.336	  0.698	 -9.725	 -0.007	  0.000	  0.003	 23.400	 98.937	 -0.054
43113	  0.227	 -0.032	  0.324	  0.370	  0.733	 -9.718	 -0.007	 -0.000	  0.003	 23.400	 98.948	 -1.024
43163	  0.225	 -0.034	  0.325	  0.267	  0.801	 -9.708	 -0.005	 -0.000	 -0.007	 23.400	 98.933	  0.298
43213	  0.224	 -0.032	  0.324	  0.253	  0.831	 -9.694	  0.000	  0.002	 -0.004	 23.400	 98.933	  0.298
43263	  0.225	 -0.035	  0.328	  0.314	  0.718	 -9.744	  0.002	  0.003	  0.018	 23.400	 98.933	  0.298
43313	  0.225	 -0.029	  0.326	  0.359	  0.674	 -9.760	  0.002	  0.007	 -0.001	 23.400	 98.937	 -0.054
43363	  0.224	 -0.026	  0.327	  0.327	  0.711	 -9.727	 -0.000	  0.007	 -0.002	 23.400	 98.944	 -0.672
43413	  0.224	 -0.032	  0.326	  0.367	  0.658	 -9.747	 -0.005	  0.005	  0.016	 23.400	 98.933	  0.298
43463	  0.226	 -0.028	  0.321	  0.415	  0.632	 -9.750	 -0.006	  0.002	  0.002	 23.400	 98.933	  0.298
43513	  0.226	 -0.025	  0.324	  0.366	  0.730	 -9.700	 -0.008	  0.001	 -0.005	 23.400	 98.933	  0.298
43563	  0.223	 -0.030	  0.326	  0.364	  0.730	 -9.718	 -0.007	 -0.003	  0.006	 23.400	 98.937	 -0.054
43613	  0.224	 -0.033	  0.319	  0.342	  0.793	 -9.728	 -0.005	 -0.002	 -0.006	 23.400	 98.937	 -0.054
43663	  0.225	 -0.034	  0.326	  0.227	  0.793	 -9.706	 -0.001	  0.000	 -0.002	 23.400	 98.937	 -0.054
43713	  0.226	 -0.033	  0.326	  0.292	  0.759	 -9.732	  0.000	  0.003	  0.008	 23.400	 98.937	 -0.054
43763	  0.225	 -0.031	  0.326	  0.291	  0.724	 -9.719	  0.000	  0.006	  0.000	 23.400	 98.937	 -0.054
43813	  0.229	 -0.036	  0.322	  0.368	  0.691	 -9.701	  0.001	  0.007	  0.006	 23.400	 98.933	  0.298
43863	  0.223	 -0.031	  0.327	  0.372	  0.623	 -9.705	 -0.004	  0.004	  0.004	 23.400	 98.944	 -0.672
43913	  0.225	 -0.036	  0.326	  0.355	  0.715	 -9.709	 -0.006	  0.004	 -0.005	 23.400	 98.933	  0.298
43962	  0.223	 -0.033	  0.323	  0.394	  0.662	 -9.693	 -0.009	  0.001	  0.008	 23.400	 98.937	 -0.054
44012	  0.223	 -0.033	  0.326	  0.396	  0.712	 -9.694	 -0.007	 -0.002	 -0.005	 23.400	 98.933	  0.298
44062	  0.224	 -0.032	  0.325	  0.282	  0.798	 -9.703	 -0.005	 -0.001	 -0.004	 23.400	 98.944	 -0.672
44112	  0.225	 -0.032	  0.326	  0.321	  0.750	 -9.730	 -0.003	 -0.001	  0.001	 23.400	 98.937	 -0.054
44162	  0.226	 -0.028	  0.323	  0.256	  0.737	 -9.735	 -0.001	  0.004	  0.001	 23.400	 98.944	 -0.672
44212	  0.225	 -0.034	  0.327	  0.254	  0.725	 -9.732	 -0.000	  0.006	  0.012	 23.400	 98.937	 -0.054
44262	  0.225	 -0.032	  0.323	  0.350	  0.694	 -9.706	 -0.002	  0.005	  0.008	 23.400	 98.933	  0.298
44312	  0.227	 -0.035	  0.325	  0.354	  0.681	 -9.696	 -0.001	  0.005	  0.005	 23.400	 98.933	  0.298
44362	  0.226	 -0.033	  0.324	  0.375	  0.671	 -9.728	 -0.004	  0.005	  0.002	 23.400	 98.937	 -0.054
44412	  0.226	 -0.030	  0.325	  0.382	  0.730	 -9.755	 -0.005	  0.002	  0.004	 23.400	 98.933	  0.298
44462	  0.227	 -0.029	  0.324	  0.393	  0.663	 -9.715	 -0.006	 -0.002	  0.011	 23.400	 98.937	 -0.054
44512	  0.225	 -0.034	  0.324	  0.354	  0.723	 -9.697	 -0.006	 -0.004	 -0.012	 23.400	 98.922	  1.268
44562	  0.226	 -0.032	  0.325	  0.189	  0.790	 -9.726	 -0.005	 -0.001	  0.005	 23.400	 98.948	 -1.024
44612	  0.227	 -0.034	  0.328	  0.319	  0.744	 -9.755	 -0.002	  0.003	  0.006	 23.400	 98.933	  0.298
44662	  0.226	 -0.031	  0.324	  0.315	  0.679	 -9.701	 -0.000	  0.006	 -0.003	 23.400	 98.937	 -0.054
44712	  0.225	 -0.029	  0.328	  0.310	  0.771	 -9.734	 -0.001	  0.008	  0.005	 23.400	 98.937	 -0.054
44762	  0.225	 -0.034	  0.323	  0.370	  0.662	 -9.743	 -0.002	  0.006	  0.017	 23.400	 98.937	 -0.054
44812	  0.224	 -0.032	  0.323	  0.430	  0.660	 -9.723	 -0.003	  0.003	  0.009	 23.400	 98.937	 -0.054
44862	  0.224	 -0.033	  0.326	  0.328	  0.723	 -9.711	 -0.004	 -0.000	 -0.001	 23.400	 98.937	 -0.054
44912	  0.225	 -0.035	  0.322	  0.386	  0.675	 -9.714	 -0.006	 -0.001	 -0.002	 23.400	 98.926	  0.915
44962	  0.226	 -0.033	  0.324	  0.342	  0.717	 -9.714	 -0.006	 -0.001	 -0.010	 23.400	 98.937	 -0.054
45012	  0.225	 -0.028	  0.325	  0.250	  0.782	 -9.693	 -0.004	 -0.001	 -0.004	 23.400	 98.948	 -1.024
45062	  0.224	 -0.027	  0.325	  0.287	  0.738	 -9.673	 -0.003	  0.002	  0.007	 23.400	 98.933	  0.298
45112	  0.227	 -0.031	  0.328	  0.271	  0.736	 -9.725	 -0.002	  0.005	  0.000	 23.400	 98.948	 -1.024
45162	  0.226	 -0.026	  0.326	  0.317	  0.720	 -9.730	 -0.002	  0.007	  0.003	 23.400	 98.937	 -0.054
45212	  0.226	 -0.030	  0.327	  0.350	  0.696	 -9.694	 -0.001	  0.007	  0.013	 23.400	 98.937	 -0.054
45262	  0.224	 -0.033	  0.325	  0.382	  0.686	 -9.712	 -0.005	  0.006	 -0.000	 23.400	 98.926	  0.915
45312	  0.225	 -0.032	  0.326	  0.363	  0.735	 -9.725	 -0.006	  0.001	 -0.003	 23.400	 98.937	 -0.054
45362	  0.227	 -0.031	  0.325	  0.362	  0.734	 -9.720	 -0.006	 -0.000	  0.005	 23.400	 98.937	 -0.054
45412	  0.226	 -0.035	  0.328	  0.343	  0.707	 -9.723	 -0.006	 -0.001	 -0.006	 23.400	 98.937	 -0.054
45462	  0.226	 -0.034	  0.323	  0.277	  0.772	 -9.714	 -0.005	 -0.001	 -0.005	 23.400	 98.944	 -0.672
45512	  0.228	 -0.034	  0.322	  0.260	  0.699	 -9.758	 -0.003	  0.001	  0.012	 23.400	 98.937	 -0.054
45562	  0.226	 -0.033	  0.324	  0.286	  0.677	 -9.693	 -0.004	  0.005	 -0.001	 23.400	 98.937	 -0.054
45612	  0.226	 -0.031	  0.327	  0.267	  0.702	 -9.706	 -0.002	  0.007	 -0.008	 23.400	 98.937	 -0.054
45662	  0.225	 -0.033	  0.321	  0.317	  0.754	 -9.701	 -0.003	  0.006	  0.015	 23.400	 98.937	 -0.054
45712	  0.228	 -0.032	  0.326	  0.413	  0.656	 -9.694	 -0.004	  0.005	  0.009	 23.400	 98.948	 -1.024
45762	  0.225	 -0.032	  0.326	  0.424	  0.700	 -9.699	 -0.004	  0.002	 -0.004	 23.400	 98.933	  0.298
45812	  0.222	 -0.033	  0.326	  0.379	  0.713	 -9.744	 -0.004	  0.002	  0.007	 23.400	 98.937	 -0.054
45862	  0.224	 -0.036	  0.321	  0.345	  0.713	 -9.742	 -0.004	 -0.001	  0.002	 23.400	 98.948	 -1.024
45912	  0.224	 -0.024	  0.325	  0.319	  0.713	 -9.746	 -0.003	 -0.001	 -0.005	 23.400	 98.937	 -0.054
45962	  0.223	 -0.035	  0.323	  0.312	  0.737	 -9.730	 -0.005	 -0.001	 -0.007	 23.400	 98.937	 -0.054
46012	  0.226	 -0.026	  0.326	  0.270	  0.710	 -9.722	 -0.003	  0.003	 -0.002	 23.400	 98.926	  0.915
46062	  0.226	 -0.034	  0.325	  0.332	  0.705	 -9.715	 -0.005	  0.005	  0.005	 23.400	 98.933	  0.298
46112	  0.225	 -0.027	  0.326	  0.329	  0.708	 -9.698	 -0.005	  0.008	 -0.004	 23.400	 98.937	 -0.054
46162	  0.224	 -0.033	  0.327	  0.341	  0.764	 -9.711	 -0.004	  0.004	  0.007	 23.400	 98.937	 -0.054
46212	  0.226	 -0.037	  0.325	  0.381	  0.753	 -9.749	 -0.003	  0.004	  0.005	 23.400	 98.937	 -0.054
46262	  0.224	 -0.033	  0.326	  0.399	  0.772	 -9.726	 -0.000	  0.002	  0.002	 23.400	 98.948	 -1.024
46312	  0.227	 -0.034	  0.328	  0.366	  0.759	 -9.707	  0.000	 -0.001	  0.005	 23.400	 98.944	 -0.672
46362	  0.225	 -0.030	  0.324	  0.336	  0.713	 -9.694	  0.000	 -0.002	  0.001	 23.400	 98.937	 -0.054
46412	  0.226	 -0.036	  0.327	  0.335	  0.620	 -9.767	 -0.001	 -0.000	 -0.002	 23.400	 98.926	  0.915
46463	  0.226	 -0.039	  0.326	  0.291	  0.672	 -9.751	 -0.005	  0.002	 -0.004	 23.400	 98.926	  0.915
46513	  0.226	 -0.034	  0.326	  0.295	  0.702	 -9.747	 -0.007	  0.003	 -0.005	 23.400	 98.926	  0.915
46563	  0.224	 -0.035	  0.324	  0.291	  0.744	 -9.714	 -0.009	  0.006	  0.007	 23.400	 98.937	 -0.054
46614	  0.227	 -0.028	  0.324	  0.376	  0.721	 -9.695	 -0.008	  0.005	 -0.001	 23.400	 98.937	 -0.054
46662	  0.224	 -0.033	  0.326	  0.317	  0.829	 -9.722	 -0.005	  0.005	  0.001	 23.400	 98.933	  0.298
46713	  0.225	 -0.033	  0.319	  0.339	  0.853	 -9.714	 -0.001	  0.003	  0.018	 23.400	 98.937	 -0.054
46763	  0.226	 -0.034	  0.323	  0.369	  0.756	 -9.707	  0.002	  0.001	  0.011	 23.400	 98.926	  0.915
46813	  0.228	 -0.034	  0.325	  0.326	  0.746	 -9.733	  0.003	 -0.001	 -0.000	 23.400	 98.937	 -0.054
46863	  0.226	 -0.033	  0.317	  0.308	  0.680	 -9.746	  0.003	  0.001	  0.020	 23.400	 98.937	 -0.054
46913	  0.226	 -0.033	  0.326	  0.355	  0.603	 -9.734	 -0.001	  0.004	 -0.006	 23.400	 98.937	 -0.054
46963	  0.224	 -0.034	  0.324	  0.307	  0.620	 -9.720	 -0.008	  0.005	  0.000	 23.400	 98.937	 -0.054
47013	  0.224	 -0.031	  0.325	  0.328	  0.704	 -9.742	 -0.011	  0.005	  0.000	 23.400	 98.948	 -1.024
47063	  0.226	 -0.032	  0.327	  0.384	  0.672	 -9.733	 -0.011	  0.004	 -0.016	 23.400	 98.937	 -0.054
47113	  0.226	 -0.029	  0.325	  0.370	  0.862	 -9.685	 -0.010	  0.002	  0.002	 23.400	 98.926	  0.915
47163	  0.224	 -0.033	  0.326	  0.323	  0.835	 -9.694	 -0.002	 -0.000	 -0.002	 23.400	 98.926	  0.915
47213	  0.225	 -0.032	  0.324	  0.423	  0.710	 -9.714	  0.002	 -0.001	  0.007	 23.400	 98.937	 -0.054
47263	  0.226	 -0.027	  0.325	  0.275	  0.803	 -9.744	  0.007	 -0.002	  0.001	 23.400	 98.944	 -0.672
47313	  0.224	 -0.032	  0.325	  0.304	  0.670	 -9.738	  0.004	  0.001	  0.012	 23.400	 98.937	 -0.054
47363	  0.228	 -0.034	  0.324	  0.304	  0.596	 -9.727	 -0.001	  0.002	  0.003	 23.400	 98.937	 -0.054
47413	  0.225	 -0.029	  0.325	  0.307	  0.635	 -9.730	 -0.006	  0.006	 -0.003	 23.400	 98.937	 -0.054
47463	  0.227	 -0.029	  0.327	  0.336	  0.660	 -9.735	 -0.010	  0.005	  0.003	 23.400	 98.926	  0.915
47513	  0.227	 -0.034	  0.320	  0.393	  0.698	 -9.729	 -0.012	  0.007	 -0.008	 23.400	 98.948	 -1.024
47563	  0.226	 -0.029	  0.322	  0.351	  0.823	 -9.654	 -0.010	  0.002	 -0.005	 23.400	 98.937	 -0.054
47613	  0.224	 -0.033	  0.326	  0.340	  0.822	 -9.745	 -0.005	  0.000	 -0.001	 23.400	 98.937	 -0.054
47663	  0.225	 -0.030	  0.323	  0.336	  0.803	 -9.713	 -0.001	  0.001	  0.005	 23.400	 98.948	 -1.024
47713	  0.226	 -0.034	  0.325	  0.279	  0.738	 -9.719	  0.003	 -0.000	 -0.005	 23.400	 98.937	 -0.054
47763	  0.226	 -0.031	  0.326	  0.306	  0.709	 -9.756	  0.001	  0.003	  0.007	 23.400	 98.937	 -0.054
47813	  0.224	 -0.032	  0.324	  0.295	  0.631	 -9.758	 -0.002	  0.003	  0.012	 23.400	 98.937	 -0.054
47863	  0.223	 -0.031	  0.327	  0.376	  0.608	 -9.744	 -0.008	  0.004	 -0.002	 23.400	 98.937	 -0.054
47913	  0.224	 -0.029	  0.326	  0.317	  0.696	 -9.752	 -0.012	  0.005	 -0.004	 23.400	 98.948	 -1.024
47963	  0.226	 -0.030	  0.325	  0.367	  0.720	 -9.719	 -0.011	  0.004	 -0.002	 23.400	 98.926	  0.915
48013	  0.227	 -0.035	  0.324	  0.384	  0.771	 -9.684	 -0.009	  0.003	 -0.008	 23.400	 98.937	 -0.054
48063	  0.226	 -0.026	  0.323	  0.312	  0.877	 -9.695	 -0.003	  0.001	 -0.008	 23.400	 98.941	 -0.408
48113	  0.227	 -0.034	  0.324	  0.321	  0.789	 -9.718	 -0.000	  0.002	  0.008	 23.400	 98.937	 -0.054
48163	  0.224	 -0.031	  0.324	  0.309	  0.727	 -9.696	  0.003	  0.001	  0.007	 23.400	 98.937	 -0.054
48213	  0.224	 -0.025	  0.326	  0.298	  0.699	 -9.690	  0.002	  0.004	  0.002	 23.400	 98.937	 -0.054
48263	  0.224	 -0.029	  0.320	  0.298	  0.614	 -9.743	 -0.002	  0.003	  0.006	 23.400	 98.937	 -0.054
48313	  0.224	 -0.026	  0.326	  0.336	  0.637	 -9.724	 -0.004	  0.006	  0.001	 23.400	 98.933	  0.298
48363	  0.225	 -0.034	  0.325	  0.323	  0.674	 -9.715	 -0.008	  0.004	 -0.004	 23.400	 98.937	 -0.054
48413	  0.223	 -0.032	  0.324	  0.358	  0.772	 -9.687	 -0.008	  0.003	 -0.001	 23.400	 98.933	  0.298
48463	  0.225	 -0.035	  0.325	  0.369	  0.788	 -9.703	 -0.007	  0.000	  0.002	 23.400	 98.937	 -0.054
48513	  0.223	 -0.030	  0.322	  0.369	  0.818	 -9.689	 -0.003	  0.000	 -0.002	 23.400	 98.937	 -0.054
48563	  0.225	 -0.027	  0.326	  0.306	  0.767	 -9.729	  0.000	 -0.000	  0.002	 23.400	 98.937	 -0.054
48613	  0.224	 -0.031	  0.327	  0.333	  0.749	 -9.749	  0.003	 -0.000	  0.004	 23.400	 98.937	 -0.054
48663	  0.224	 -0.033	  0.325	  0.271	  0.695	 -9.766	 -0.000	  0.002	  0.002	 23.400	 98.941	 -0.408
48713	  0.223	 -0.027	  0.327	  0.367	  0.669	 -9.756	 -0.003	  0.003	  0.013	 23.400	 98.937	 -0.054
48763	  0.225	 -0.032	  0.328	  0.318	  0.703	 -9.755	 -0.005	  0.004	  0.005	 23.400	 98.926	  0.915
48813	  0.225	 -0.033	  0.322	  0.354	  0.714	 -9.719	 -0.007	  0.004	 -0.003	 23.400	 98.937	 -0.054
48863	  0.225	 -0.033	  0.325	  0.389	  0.733	 -9.704	 -0.006	  0.003	  0.008	 23.400	 98.937	 -0.054
48913	  0.223	 -0.031	  0.326	  0.350	  0.758	 -9.695	 -0.005	  0.003	 -0.004	 23.400	 98.937	 -0.054
48963	  0.224	 -0.032	  0.324	  0.352	  0.784	 -9.732	 -0.002	  0.001	  0.006	 23.400	 98.937	 -0.054
49013	  0.224	 -0.032	  0.326	  0.380	  0.686	 -9.742	 -0.002	  0.000	  0.000	 23.400	 98.926	  0.915
49063	  0.225	 -0.032	  0.323	  0.270	  0.805	 -9.712	 -0.001	  0.001	 -0.003	 23.400	 98.937	 -0.054
49113	  0.226	 -0.034	  0.328	  0.324	  0.670	 -9.747	 -0.003	  0.004	  0.013	 23.400	 98.937	 -0.054
49163	  0.223	 -0.033	  0.329	  0.331	  0.681	 -9.724	 -0.003	  0.003	 -0.002	 23.400	 98.937	 -0.054
49213	  0.223	 -0.032	  0.327	  0.283	  0.709	 -9.733	 -0.004	  0.004	  0.004	 23.400	 98.948	 -1.024
49263	  0.225	 -0.029	  0.327	  0.393	  0.701	 -9.733	 -0.005	  0.005	  0.005	 23.400	 98.948	 -1.024
49313	  0.224	 -0.036	  0.327	  0.330	  0.715	 -9.718	 -0.005	  0.004	 -0.001	 23.400	 98.926	  0.915
49363	  0.221	 -0.031	  0.324	  0.386	  0.766	 -9.662	 -0.004	  0.001	  0.000	 23.400	 98.948	 -1.024
49413	  0.224	 -0.032	  0.326	  0.387	  0.750	 -9.716	 -0.003	  0.000	  0.006	 23.400	 98.937	 -0.054
49463	  0.224	 -0.028	  0.319	  0.345	  0.759	 -9.696	 -0.002	 -0.001	 -0.002	 23.400	 98.937	 -0.054
49513	  0.224	 -0.033	  0.324	  0.282	  0.715	 -9.745	 -0.001	 -0.000	  0.002	 23.400	 98.926	  0.915
49563	  0.225	 -0.030	  0.324	  0.342	  0.718	 -9.729	 -0.003	  0.001	  0.002	 23.400	 98.937	 -0.054
49613	  0.226	 -0.030	  0.324	  0.289	  0.703	 -9.724	 -0.002	  0.003	  0.004	 23.400	 98.926	  0.915
49663	  0.225	 -0.033	  0.321	  0.310	  0.702	 -9.746	 -0.003	  0.004	  0.005	 23.400	 98.937	 -0.054
49713	  0.226	 -0.032	  0.326	  0.326	  0.734	 -9.731	 -0.004	  0.004	  0.001	 23.400	 98.937	 -0.054
49763	  0.227	 -0.035	  0.325	  0.360	  0.726	 -9.676	 -0.004	  0.004	  0.004	 23.400	 98.937	 -0.054
49813	  0.227	 -0.030	  0.326	  0.379	  0.725	 -9.702	 -0.005	  0.003	 -0.001	 23.400	 98.926	  0.915
49863	  0.226	 -0.031	  0.324	  0.321	  0.738	 -9.722	 -0.004	  0.001	  0.003	 23.400	 98.937	 -0.054
49913	  0.225	 -0.030	  0.327	  0.373	  0.752	 -9.693	 -0.006	  0.000	  0.000	 23.400	 98.926	  0.915
49963	  0.222	 -0.033	  0.326	  0.308	  0.725	 -9.700	 -0.003	 -0.000	  0.000	 23.400	 98.926	  0.915
50013	  0.224	 -0.033	  0.324	  0.327	  0.754	 -9.728	 -0.003	  0.001	  0.002	 23.400	 98.937	 -0.054
50063	  0.223	 -0.036	  0.325	  0.287	  0.696	 -9.725	 -0.003	  0.003	  0.001	 23.400	 98.937	 -0.054
50113	  0.225	 -0.030	  0.325	  0.325	  0.766	 -9.706	 -0.004	  0.004	  0.002	 23.400	 98.937	 -0.054
50163	  0.224	 -0.031	  0.324	  0.318	  0.707	 -9.728	 -0.004	  0.004	 -0.001	 23.400	 98.937	 -0.054
50213	  0.223	 -0.033	  0.328	  0.349	  0.740	 -9.697	 -0.005	  0.004	  0.008	 23.400	 98.926	  0.915
50263	  0.224	 -0.032	  0.326	  0.332	  0.731	 -9.706	 -0.004	  0.002	  0.001	 23.400	 98.930	  0.563
50313	  0.225	 -0.035	  0.326	  0.336	  0.756	 -9.722	 -0.004	  0.003	  0.003	 23.400	 98.926	  0.915
50363	  0.228	 -0.030	  0.325	  0.331	  0.729	 -9.736	 -0.002	  0.001	  0.003	 23.400	 98.922	  1.268
50412	  0.225	 -0.037	  0.326	  0.307	  0.774	 -9.710	 -0.002	  0.002	 -0.001	 23.400	 98.937	 -0.054
50462	  0.224	 -0.027	  0.325	  0.296	  0.698	 -9.731	 -0.002	  0.003	  0.002	 23.400	 98.926	  0.915
50512	  0.226	 -0.031	  0.328	  0.362	  0.728	 -9.752	 -0.002	  0.003	  0.000	 23.400	 98.937	 -0.054
50562	  0.227	 -0.034	  0.326	  0.359	  0.700	 -9.726	 -0.004	  0.002	  0.005	 23.400	 98.926	  0.915
50612	  0.225	 -0.031	  0.324	  0.313	  0.698	 -9.723	 -0.004	  0.003	  0.001	 23.400	 98.926	  0.915
50662	  0.223	 -0.031	  0.322	  0.348	  0.716	 -9.713	 -0.006	  0.002	 -0.001	 23.400	 98.937	 -0.054
50712	  0.224	 -0.033	  0.324	  0.354	  0.735	 -9.726	 -0.005	  0.000	 -0.000	 23.400	 98.937	 -0.054
50762	  0.224	 -0.033	  0.322	  0.305	  0.748	 -9.708	 -0.003	  0.001	  0.003	 23.400	 98.937	 -0.054
50812	  0.225	 -0.033	  0.324	  0.321	  0.726	 -9.721	 -0.001	  0.003	  0.001	 23.400	 98.926	  0.915
50862	  0.224	 -0.031	  0.326	  0.303	  0.732	 -9.719	 -0.002	  0.004	  0.003	 23.400	 98.937	 -0.054
50912	  0.227	 -0.029	  0.324	  0.301	  0.751	 -9.711	 -0.002	  0.002	  0.009	 23.400	 98.915	  1.885
50962	  0.225	 -0.030	  0.327	  0.345	  0.706	 -9.734	 -0.003	  0.004	  0.007	 23.400	 98.926	  0.915
51012	  0.224	 -0.035	  0.326	  0.362	  0.732	 -9.713	 -0.002	  0.003	  0.003	 23.400	 98.937	 -0.054
51062	  0.225	 -0.034	  0.324	  0.347	  0.750	 -9.706	 -0.003	  0.002	  0.014	 23.400	 98.937	 -0.054
51112	  0.223	 -0.027	  0.323	  0.430	  0.686	 -9.707	 -0.001	  0.002	  0.001	 23.400	 98.937	 -0.054
51162	  0.224	 -0.032	  0.326	  0.315	  0.682	 -9.713	 -0.004	  0.002	 -0.010	 23.400	 98.937	 -0.054
51212	  0.224	 -0.033	  0.326	  0.310	  0.768	 -9.748	 -0.002	  0.000	 -0.004	 23.400	 98.937	 -0.054
51262	  0.223	 -0.033	  0.324	  0.312	  0.662	 -9.730	 -0.005	  0.003	  0.005	 23.400	 98.937	 -0.054
51312	  0.222	 -0.033	  0.324	  0.364	  0.761	 -9.744	 -0.006	  0.003	 -0.009	 23.400	 98.937	 -0.054
51362	  0.224	 -0.033	  0.326	  0.237	  0.862	 -9.719	 -0.004	  0.003	  0.015	 23.400	 98.926	  0.915
51412	  0.222	 -0.031	  0.323	  0.412	  0.710	 -9.688	 -0.000	  0.002	  0.011	 23.400	 98.930	  0.563
51462	  0.222	 -0.027	  0.322	  0.330	  0.740	 -9.729	  0.002	  0.002	 -0.009	 23.400	 98.919	  1.532
51512	  0.226	 -0.032	  0.323	  0.287	  0.771	 -9.708	  0.001	  0.001	  0.021	 23.400	 98.930	  0.563
51562	  0.223	 -0.030	  0.326	  0.393	  0.563	 -9.759	 -0.002	  0.001	  0.016	 23.400	 98.937	 -0.054
51612	  0.225	 -0.028	  0.323	  0.349	  0.616	 -9.752	 -0.004	  0.004	 -0.030	 23.400	 98.926	  0.915
51662	  0.224	 -0.030	  0.325	  0.262	  0.719	 -9.763	 -0.010	  0.003	  0.003	 23.400	 98.937	 -0.054
51712	  0.226	 -0.035	  0.325	  0.393	  0.720	 -9.680	 -0.011	  0.002	  0.009	 23.400	 98.926	  0.915
51762	  0.225	 -0.030	  0.326	  0.347	  0.853	 -9.675	 -0.008	  0.001	 -0.006	 23.400	 98.926	  0.915
51812	  0.225	 -0.032	  0.323	  0.293	  0.846	 -9.704	 -0.002	  0.001	  0.002	 23.400	 98.926	  0.915
51862	  0.223	 -0.030	  0.325	  0.328	  0.805	 -9.719	  0.002	  0.001	  0.006	 23.400	 98.937	 -0.054
51912	  0.224	 -0.031	  0.320	  0.313	  0.714	 -9.694	  0.007	  0.002	  0.006	 23.400	 98.930	  0.563
51963	  0.225	 -0.033	  0.322	  0.308	  0.713	 -9.724	  0.003	  0.004	  0.021	 23.400	 98.937	 -0.054
52013	  0.227	 -0.032	  0.325	  0.406	  0.563	 -9.728	 -0.003	  0.003	  0.024	 23.400	 98.937	 -0.054
52062	  0.224	 -0.032	  0.324	  0.362	  0.640	 -9.721	 -0.006	  0.004	 -0.013	 23.400	 98.941	 -0.408
52113	  0.225	 -0.029	  0.325	  0.339	  0.687	 -9.710	 -0.009	  0.003	 -0.006	 23.400	 98.937	 -0.054
52162	  0.226	 -0.030	  0.324	  0.384	  0.741	 -9.709	 -0.009	  0.001	 -0.005	 23.400	 98.941	 -0.408
52212	  0.224	 -0.029	  0.327	  0.308	  0.890	 -9.713	 -0.004	 -0.001	 -0.001	 23.400	 98.926	  0.915
52262	  0.226	 -0.031	  0.324	  0.357	  0.761	 -9.722	  0.001	 -0.000	  0.007	 23.400	 98.930	  0.563
52312	  0.226	 -0.031	  0.321	  0.300	  0.772	 -9.715	  0.003	  0.000	  0.001	 23.400	 98.926	  0.915
52363	  0.224	 -0.032	  0.326	  0.262	  0.691	 -9.741	  0.003	  0.003	  0.016	 23.400	 98.926	  0.915
52413	  0.225	 -0.025	  0.327	  0.343	  0.631	 -9.720	 -0.000	  0.005	  0.004	 23.400	 98.937	 -0.054
52463	  0.222	 -0.031	  0.326	  0.319	  0.613	 -9.767	 -0.005	  0.005	 -0.003	 23.400	 98.937	 -0.054
52513	  0.224	 -0.030	  0.324	  0.358	  0.694	 -9.707	 -0.008	  0.004	 -0.001	 23.400	 98.937	 -0.054
52563	  0.224	 -0.033	  0.320	  0.393	  0.627	 -9.714	 -0.010	  0.004	 -0.002	 23.400	 98.926	  0.915
52613	  0.225	 -0.024	  0.324	  0.373	  0.756	 -9.699	 -0.012	  0.002	 -0.018	 23.400	 98.937	 -0.054
52663	  0.225	 -0.032	  0.326	  0.307	  0.824	 -9.685	 -0.008	 -0.001	 -0.001	 23.400	 98.926	  0.915
52713	  0.223	 -0.029	  0.320	  0.365	  0.781	 -9.701	 -0.004	 -0.001	 -0.007	 23.400	 98.930	  0.563
52763	  0.223	 -0.032	  0.325	  0.218	  0.835	 -9.697	  0.000	 -0.003	 -0.001	 23.400	 98.937	 -0.054
52813	  0.225	 -0.028	  0.325	  0.198	  0.813	 -9.735	  0.004	  0.004	  0.026	 23.400	 98.926	  0.915
52863	  0.222	 -0.031	  0.323	  0.378	  0.610	 -9.769	  0.004	  0.006	  0.021	 23.400	 98.926	  0.915
52913	  0.224	 -0.028	  0.324	  0.318	  0.682	 -9.748	 -0.000	  0.008	  0.003	 23.400	 98.937	 -0.054
52963	  0.225	 -0.027	  0.323	  0.363	  0.661	 -9.723	 -0.004	  0.006	  0.008	 23.400	 98.926	  0.915
53013	  0.224	 -0.030	  0.325	  0.443	  0.594	 -9.704	 -0.009	  0.003	  0.014	 23.400	 98.930	  0.563
53063	  0.227	 -0.034	  0.324	  0.467	  0.653	 -9.681	 -0.011	 -0.001	 -0.029	 23.400	 98.941	 -0.408
53113	  0.225	 -0.031	  0.323	  0.299	  0.851	 -9.739	 -0.012	 -0.004	 -0.023	 23.400	 98.930	  0.563
53163	  0.224	 -0.029	  0.327	  0.248	  0.864	 -9.712	 -0.007	 -0.005	  0.003	 23.400	 98.926	  0.915
53213	  0.226	 -0.028	  0.322	  0.339	  0.779	 -9.697	 -0.003	 -0.002	 -0.003	 23.400	 98.926	  0.915
53263	  0.227	 -0.026	  0.318	  0.164	  0.851	 -9.679	  0.002	  0.001	 -0.003	 23.400	 98.930	  0.563
53313	  0.226	 -0.032	  0.319	  0.241	  0.778	 -9.705	  0.004	  0.004	  0.027	 23.400	 98.930	  0.563
53363	  0.224	 -0.027	  0.320	  0.319	  0.675	 -9.721	  0.005	  0.008	  0.025	 23.400	 98.941	 -0.408
53413	  0.223	 -0.030	  0.323	  0.383	  0.630	 -9.734	  0.001	  0.006	  0.014	 23.400	 98.930	  0.563
53463	  0.225	 -0.027	  0.325	  0.403	  0.645	 -9.712	 -0.003	  0.004	  0.013	 23.400	 98.937	 -0.054
53513	  0.226	 -0.029	  0.322	  0.415	  0.652	 -9.726	 -0.007	  0.003	  0.000	 23.400	 98.926	  0.915
53563	  0.224	 -0.030	  0.322	  0.361	  0.743	 -9.729	 -0.008	 -0.001	  0.000	 23.400	 98.937	 -0.054
53613	  0.227	 -0.022	  0.322	  0.378	  0.700	 -9.727	 -0.007	 -0.001	 -0.010	 23.400	 98.930	  0.563
53663	  0.225	 -0.028	  0.325	  0.337	  0.792	 -9.747	 -0.005	 -0.003	 -0.010	 23.400	 98.922	  1.268
53713	  0.225	 -0.031	  0.321	  0.203	  0.799	 -9.750	 -0.001	 -0.001	 -0.004	 23.400	 98.930	  0.563
53763	  0.225	 -0.024	  0.325	  0.280	  0.759	 -9.752	  0.000	  0.003	  0.008	 23.400	 98.930	  0.563
53813	  0.226	 -0.029	  0.325	  0.283	  0.678	 -9.736	 -0.000	  0.008	  0.002	 23.400	 98.937	 -0.054
53863	  0.224	 -0.034	  0.323	  0.303	  0.713	 -9.724	 -0.002	  0.009	  0.006	 23.400	 98.930	  0.563
53913	  0.222	 -0.028	  0.317	  0.388	  0.658	 -9.739	 -0.006	  0.008	  0.022	 23.400	 98.941	 -0.408
53963	  0.222	 -0.031	  0.326	  0.445	  0.632	 -9.738	 -0.009	  0.005	 -0.014	 23.400	 98.930	  0.563
54013	  0.226	 -0.032	  0.321	  0.355	  0.770	 -9.710	 -0.009	  0.000	 -0.007	 23.400	 98.941	 -0.408
54063	  0.224	 -0.031	  0.323	  0.382	  0.793	 -9.690	 -0.006	 -0.002	 -0.003	 23.400	 98.930	  0.563
54113	  0.224	 -0.028	  0.324	  0.364	  0.765	 -9.704	 -0.005	 -0.005	  0.004	 23.400	 98.930	  0.563
54163	  0.224	 -0.021	  0.320	  0.261	  0.765	 -9.674	  0.000	 -0.001	 -0.021	 23.400	 98.926	  0.915
54212	  0.225	 -0.031	  0.323	  0.235	  0.820	 -9.735	  0.001	  0.002	  0.008	 23.400	 98.926	  0.915
54262	  0.225	 -0.025	  0.318	  0.263	  0.656	 -9.739	  0.000	  0.004	  0.015	 23.400	 98.926	  0.915
54312	  0.227	 -0.032	  0.322	  0.306	  0.684	 -9.721	 -0.001	  0.007	 -0.000	 23.400	 98.937	 -0.054
54362	  0.224	 -0.032	  0.323	  0.314	  0.678	 -9.751	 -0.005	  0.008	  0.014	 23.400	 98.930	  0.563
54412	  0.223	 -0.028	  0.325	  0.382	  0.677	 -9.691	 -0.006	  0.007	  0.002	 23.400	 98.941	 -0.408
54462	  0.222	 -0.029	  0.325	  0.405	  0.718	 -9.703	 -0.006	  0.004	  0.005	 23.400	 98.930	  0.563
54512	  0.223	 -0.029	  0.318	  0.384	  0.744	 -9.741	 -0.006	  0.001	 -0.001	 23.400	 98.926	  0.915
54562	  0.225	 -0.031	  0.316	  0.392	  0.735	 -9.686	 -0.004	 -0.003	 -0.005	 23.400	 98.926	  0.915
54612	  0.225	 -0.030	  0.325	  0.313	  0.766	 -9.700	 -0.004	 -0.003	 -0.008	 23.400	 98.937	 -0.054
54662	  0.223	 -0.028	  0.319	  0.260	  0.741	 -9.709	 -0.003	 -0.001	  0.001	 23.400	 98.937	 -0.054
54712	  0.224	 -0.031	  0.324	  0.236	  0.677	 -9.767	 -0.002	  0.001	  0.000	 23.400	 98.930	  0.563
54762	  0.227	 -0.025	  0.324	  0.285	  0.713	 -9.699	 -0.003	  0.005	  0.001	 23.400	 98.930	  0.563
54812	  0.224	 -0.025	  0.320	  0.335	  0.684	 -9.686	 -0.003	  0.007	  0.010	 23.400	 98.926	  0.915
54862	  0.227	 -0.030	  0.321	  0.388	  0.690	 -9.746	 -0.005	  0.007	  0.005	 23.400	 98.930	  0.563
54912	  0.226	 -0.029	  0.325	  0.377	  0.709	 -9.716	 -0.005	  0.004	  0.000	 23.400	 98.926	  0.915
54962	  0.226	 -0.032	  0.324	  0.376	  0.783	 -9.681	 -0.004	  0.001	  0.002	 23.400	 98.937	 -0.054
55012	  0.227	 -0.028	  0.323	  0.384	  0.691	 -9.755	 -0.004	  0.000	  0.003	 23.400	 98.941	 -0.408
55062	  0.225	 -0.030	  0.323	  0.326	  0.767	 -9.731	 -0.003	 -0.000	 -0.002	 23.400	 98.937	 -0.054
55112	  0.225	 -0.027	  0.322	  0.333	  0.698	 -9.689	 -0.001	  0.001	 -0.001	 23.400	 98.926	  0.915
55162	  0.226	 -0.031	  0.321	  0.320	  0.730	 -9.708	 -0.002	 -0.000	 -0.001	 23.400	 98.930	  0.563
55212	  0.227	 -0.027	  0.323	  0.301	  0.692	 -9.729	 -0.004	  0.002	  0.000	 23.400	 98.926	  0.915
55262	  0.224	 -0.030	  0.320	  0.289	  0.743	 -9.740	 -0.005	  0.004	  0.008	 23.400	 98.952	 -1.378
55312	  0.225	 -0.025	  0.322	  0.352	  0.701	 -9.731	 -0.006	  0.005	  0.011	 23.400	 98.930	  0.563
55362	  0.225	 -0.026	  0.323	  0.348	  0.728	 -9.730	 -0.003	  0.005	 -0.006	 23.400	 98.930	  0.563
55412	  0.223	 -0.030	  0.323	  0.342	  0.730	 -9.705	 -0.004	  0.002	  0.004	 23.400	 98.930	  0.563
55462	  0.225	 -0.026	  0.317	  0.384	  0.710	 -9.704	 -0.003	  0.001	  0.009	 23.400	 98.930	  0.563
55512	  0.224	 -0.032	  0.323	  0.368	  0.713	 -9.745	 -0.002	 -0.000	 -0.000	 23.400	 98.941	 -0.408
55562	  0.222	 -0.029	  0.323	  0.318	  0.711	 -9.746	 -0.003	  0.001	 -0.003	 23.400	 98.941	 -0.408
55612	  0.226	 -0.030	  0.327	  0.330	  0.707	 -9.733	 -0.004	  0.000	  0.003	 23.400	 98.941	 -0.408
55662	  0.222	 -0.028	  0.322	  0.296	  0.700	 -9.725	 -0.005	  0.001	 -0.003	 23.400	 98.915	  1.885
55712	  0.225	 -0.030	  0.324	  0.277	  0.764	 -9.743	 -0.005	  0.004	  0.005	 23.400	 98.930	  0.563
55762	  0.225	 -0.030	  0.323	  0.331	  0.732	 -9.697	 -0.006	  0.004	  0.007	 23.400	 98.941	 -0.408
55812	  0.225	 -0.030	  0.322	  0.374	  0.728	 -9.692	 -0.003	  0.004	 -0.002	 23.400	 98.937	 -0.054
55862	  0.227	 -0.029	  0.324	  0.337	  0.780	 -9.730	 -0.003	  0.002	  0.005	 23.400	 98.926	  0.915
55912	  0.225	 -0.031	  0.322	  0.363	  0.728	 -9.735	 -0.001	  0.001	  0.006	 23.400	 98.937	 -0.054
55962	  0.228	 -0.030	  0.319	  0.361	  0.685	 -9.732	 -0.002	 -0.000	  0.001	 23.400	 98.930	  0.563
56012	  0.224	 -0.024	  0.325	  0.328	  0.715	 -9.723	 -0.003	  0.000	  0.001	 23.400	 98.937	 -0.054
56062	  0.225	 -0.031	  0.327	  0.283	  0.721	 -9.753	 -0.003	  0.002	  0.006	 23.400	 98.930	  0.563
56112	  0.223	 -0.026	  0.323	  0.324	  0.690	 -9.737	 -0.005	  0.002	  0.003	 23.400	 98.937	 -0.054
56162	  0.224	 -0.030	  0.323	  0.311	  0.700	 -9.712	 -0.006	  0.004	 -0.003	 23.400	 98.941	 -0.408
56212	  0.223	 -0.029	  0.323	  0.323	  0.744	 -9.712	 -0.007	  0.005	  0.002	 23.400	 98.941	 -0.408
56262	  0.227	 -0.031	  0.323	  0.340	  0.746	 -9.712	 -0.007	  0.005	  0.009	 23.400	 98.930	  0.563
56312	  0.225	 -0.029	  0.326	  0.382	  0.755	 -9.723	 -0.003	  0.003	  0.000	 23.400	 98.930	  0.563
56362	  0.224	 -0.029	  0.325	  0.321	  0.782	 -9.687	 -0.001	  0.001	  0.002	 23.400	 98.930	  0.563
56412	  0.226	 -0.032	  0.324	  0.404	  0.743	 -9.692	 -0.000	 -0.000	  0.006	 23.400	 98.941	 -0.408
56462	  0.226	 -0.027	  0.319	  0.343	  0.692	 -9.706	 -0.001	  0.000	  0.000	 23.400	 98.941	 -0.408
56512	  0.226	 -0.028	  0.325	  0.306	  0.712	 -9.742	 -0.001	  0.000	 -0.002	 23.400	 98.941	 -0.408
56562	  0.225	 -0.027	  0.323	  0.319	  0.681	 -9.695	 -0.004	  0.002	  0.005	 23.400	 98.926	  0.915
56612	  0.225	 -0.031	  0.322	  0.332	  0.699	 -9.733	 -0.006	  0.003	  0.000	 23.400	 98.919	  1.532
56662	  0.227	 -0.031	  0.324	  0.305	  0.729	 -9.693	 -0.006	  0.003	 -0.003	 23.400	 98.930	  0.563
56712	  0.224	 -0.030	  0.322	  0.371	  0.761	 -9.695	 -0.005	  0.005	  0.004	 23.400	 98.941	 -0.408
56762	  0.227	 -0.028	  0.322	  0.335	  0.792	 -9.720	 -0.002	  0.004	  0.005	 23.400	 98.926	  0.915
56812	  0.226	 -0.034	  0.319	  0.352	  0.763	 -9.702	 -0.001	  0.003	  0.007	 23.400	 98.930	  0.563
56862	  0.226	 -0.032	  0.325	  0.416	  0.698	 -9.672	  0.001	  0.000	  0.000	 23.400	 98.926	  0.915
56912	  0.226	 -0.028	  0.323	  0.358	  0.706	 -9.736	 -0.001	 -0.001	 -0.011	 23.400	 98.930	  0.563
56962	  0.225	 -0.026	  0.323	  0.261	  0.713	 -9.719	 -0.002	 -0.001	  0.003	 23.400	 98.937	 -0.054
57012	  0.224	 -0.030	  0.325	  0.353	  0.655	 -9.724	 -0.006	 -0.000	  0.014	 23.400	 98.919	  1.532
57062	  0.224	 -0.030	  0.324	  0.284	  0.674	 -9.723	 -0.007	  0.002	 -0.009	 23.400	 98.930	  0.563
57112	  0.224	 -0.032	  0.318	  0.268	  0.775	 -9.730	 -0.006	  0.004	 -0.011	 23.400	 98.937	 -0.054
57162	  0.226	 -0.023	  0.318	  0.313	  0.758	 -9.722	 -0.005	  0.003	  0.015	 23.400	 98.930	  0.563
57212	  0.226	 -0.031	  0.324	  0.371	  0.780	 -9.728	 -0.002	  0.005	  0.005	 23.400	 98.937	 -0.054
57262	  0.225	 -0.025	  0.322	  0.311	  0.807	 -9.689	  0.000	  0.004	  0.008	 23.400	 98.930	  0.563
57312	  0.225	 -0.030	  0.324	  0.341	  0.714	 -9.722	  0.002	  0.003	  0.023	 23.400	 98.941	 -0.408
57362	  0.223	 -0.027	  0.324	  0.406	  0.659	 -9.717	  0.002	  0.002	  0.009	 23.400	 98.930	  0.563
57412	  0.225	 -0.029	  0.322	  0.312	  0.696	 -9.731	 -0.001	  0.001	 -0.007	 23.400	 98.930	  0.563
57462	  0.228	 -0.029	  0.323	  0.374	  0.648	 -9.741	 -0.003	  0.002	  0.007	 23.400	 98.941	 -0.408
57512	  0.225	 -0.028	  0.323	  0.310	  0.674	 -9.710	 -0.008	  0.001	 -0.003	 23.400	 98.930	  0.563
57562	  0.226	 -0.030	  0.323	  0.298	  0.758	 -9.751	 -0.008	  0.002	 -0.009	 23.400	 98.952	 -1.378
57612	  0.226	 -0.031	  0.319	  0.283	  0.760	 -9.721	 -0.007	  0.003	  0.003	 23.400	 98.941	 -0.408
57663	  0.224	 -0.030	  0.322	  0.315	  0.786	 -9.716	 -0.004	  0.005	  0.007	 23.400	 98.941	 -0.408
57712	  0.224	 -0.032	  0.325	  0.325	  0.772	 -9.699	 -0.002	  0.006	 -0.004	 23.400	 98.926	  0.915
57762	  0.226	 -0.030	  0.323	  0.342	  0.770	 -9.700	 -0.001	  0.002	  0.010	 23.400	 98.941	 -0.408
57812	  0.226	 -0.028	  0.323	  0.355	  0.686	 -9.715	 -0.001	  0.003	  0.010	 23.400	 98.926	  0.915
57863	  0.225	 -0.032	  0.327	  0.386	  0.687	 -9.740	 -0.000	  0.001	  0.000	 23.400	 98.937	 -0.054
57912	  0.225	 -0.030	  0.319	  0.330	  0.661	 -9.726	 -0.004	  0.001	  0.002	 23.400	 98.937	 -0.054
57963	  0.226	 -0.024	  0.321	  0.313	  0.753	 -9.757	 -0.005	  0.001	  0.005	 23.400	 98.930	  0.563
58012	  0.226	 -0.032	  0.327	  0.328	  0.702	 -9.710	 -0.004	  0.002	  0.004	 23.400	 98.941	 -0.408
58063	  0.226	 -0.027	  0.322	  0.326	  0.737	 -9.678	 -0.004	  0.003	  0.005	 23.400	 98.930	  0.563
58113	  0.227	 -0.031	  0.324	  0.330	  0.725	 -9.744	 -0.002	  0.004	 -0.001	 23.400	 98.930	  0.563
58163	  0.225	 -0.027	  0.324	  0.344	  0.757	 -9.731	 -0.001	  0.002	  0.006	 23.400	 98.941	 -0.408
58213	  0.227	 -0.031	  0.324	  0.332	  0.703	 -9.757	 -0.001	  0.002	  0.021	 23.400	 98.941	 -0.408
58263	  0.226	 -0.029	  0.326	  0.413	  0.621	 -9.723	 -0.002	  0.002	 -0.003	 23.400	 98.930	  0.563
58313	  0.225	 -0.022	  0.319	  0.320	  0.704	 -9.739	 -0.004	  0.001	 -0.005	 23.400	 98.930	  0.563
58363	  0.226	 -0.028	  0.319	  0.315	  0.689	 -9.755	 -0.007	  0.001	  0.005	 23.400	 98.930	  0.563
58413	  0.226	 -0.030	  0.321	  0.353	  0.667	 -9.722	 -0.007	  0.001	 -0.005	 23.400	 98.926	  0.915
58463	  0.225	 -0.031	  0.317	  0.333	  0.728	 -9.698	 -0.008	  0.003	 -0.014	 23.400	 98.941	 -0.408
58513	  0.225	 -0.032	  0.326	  0.290	  0.811	 -9.708	 -0.007	  0.002	 -0.002	 23.400	 98.930	  0.563
58563	  0.225	 -0.027	  0.322	  0.328	  0.772	 -9.738	 -0.004	  0.003	  0.008	 23.400	 98.941	 -0.408
58613	  0.225	 -0.029	  0.323	  0.371	  0.709	 -9.722	 -0.002	  0.003	 -0.001	 23.400	 98.930	  0.563
58663	  0.224	 -0.030	  0.323	  0.267	  0.771	 -9.714	 -0.000	  0.004	  0.001	 23.400	 98.930	  0.563
58713	  0.228	 -0.025	  0.321	  0.378	  0.697	 -9.775	 -0.002	  0.004	  0.009	 23.400	 98.941	 -0.408
58763	  0.223	 -0.030	  0.324	  0.413	  0.631	 -9.700	 -0.004	  0.002	 -0.002	 23.400	 98.941	 -0.408
58813	  0.227	 -0.024	  0.323	  0.306	  0.691	 -9.734	 -0.007	  0.002	 -0.012	 23.400	 98.941	 -0.408
58863	  0.225	 -0.031	  0.324	  0.281	  0.746	 -9.738	 -0.008	  0.001	  0.009	 23.400	 98.941	 -0.408
58913	  0.222	 -0.028	  0.324	  0.377	  0.671	 -9.717	 -0.009	  0.002	 -0.003	 23.400	 98.930	  0.563
58963	  0.225	 -0.031	  0.322	  0.342	  0.767	 -9.715	 -0.006	  0.000	 -0.016	 23.400	 98.941	 -0.408
59013	  0.224	 -0.027	  0.322	  0.269	  0.845	 -9.705	 -0.003	  0.001	 -0.003	 23.400	 98.926	  0.915
59063	  0.227	 -0.023	  0.321	  0.380	  0.746	 -9.732	 -0.000	  0.002	  0.009	 23.400	 98.941	 -0.408
59113	  0.225	 -0.029	  0.323	  0.322	  0.696	 -9.704	 -0.000	  0.005	  0.002	 23.400	 98.941	 -0.408
59163	  0.227	 -0.024	  0.325	  0.315	  0.688	 -9.696	 -0.001	  0.004	 -0.003	 23.400	 98.930	  0.563
59213	  0.225	 -0.031	  0.321	  0.320	  0.670	 -9.747	 -0.003	  0.003	  0.006	 23.400	 98.941	 -0.408
59263	  0.223	 -0.035	  0.316	  0.369	  0.694	 -9.700	 -0.006	  0.001	 -0.000	 23.400	 98.941	 -0.408
59313	  0.224	 -0.029	  0.323	  0.274	  0.758	 -9.713	 -0.005	  0.001	 -0.004	 23.400	 98.930	  0.563
59363	  0.226	 -0.029	  0.323	  0.388	  0.713	 -9.711	 -0.006	  0.002	  0.005	 23.400	 98.930	  0.563
59413	  0.225	 -0.032	  0.323	  0.328	  0.723	 -9.742	 -0.005	  0.003	 -0.013	 23.400	 98.941	 -0.408
59463	  0.226	 -0.032	  0.324	  0.275	  0.752	 -9.700	 -0.005	  0.003	 -0.007	 23.400	 98.941	 -0.408
59513	  0.227	 -0.032	  0.324	  0.314	  0.786	 -9.726	 -0.006	  0.004	  0.015	 23.400	 98.930	  0.563
59563	  0.224	 -0.030	  0.322	  0.394	  0.701	 -9.715	 -0.003	  0.005	 -0.004	 23.400	 98.941	 -0.408
59613	  0.227	 -0.028	  0.324	  0.310	  0.826	 -9.711	 -0.004	  0.002	 -0.005	 23.400	 98.930	  0.563
59663	  0.223	 -0.032	  0.324	  0.379	  0.731	 -9.720	 -0.000	  0.001	  0.003	 23.400	 98.941	 -0.408
59713	  0.226	 -0.030	  0.322	  0.401	  0.702	 -9.709	 -0.002	 -0.000	 -0.004	 23.400	 98.930	  0.563
59763	  0.225	 -0.028	  0.323	  0.290	  0.753	 -9.722	 -0.001	 -0.003	  0.002	 23.400	 98.930	  0.563
59813	  0.225	 -0.030	  0.322	  0.293	  0.677	 -9.728	 -0.002	  0.001	  0.001	 23.400	 98.941	 -0.408
59863	  0.226	 -0.030	  0.319	  0.340	  0.689	 -9.710	 -0.004	  0.002	 -0.002	 23.400	 98.930	  0.563
59913	  0.226	 -0.030	  0.324	  0.245	  0.741	 -9.739	 -0.007	  0.004	 -0.007	 23.400	 98.930	  0.563
59963	  0.225	 -0.028	  0.321	  0.289	  0.791	 -9.723	 -0.007	  0.005	  0.017	 23.400	 98.941	 -0.408
60013	  0.226	 -0.027	  0.323	  0.362	  0.672	 -9.705	 -0.006	  0.007	  0.010	 23.400	 98.941	 -0.408
60063	  0.227	 -0.028	  0.322	  0.372	  0.794	 -9.725	 -0.003	  0.006	 -0.010	 23.400	 98.941	 -0.408
60113	  0.224	 -0.025	  0.323	  0.345	  0.766	 -9.688	 -0.005	  0.002	  0.015	 23.400	 98.926	  0.915
60163	  0.226	 -0.030	  0.325	  0.374	  0.769	 -9.703	 -0.002	  0.001	  0.008	 23.400	 98.941	 -0.408
60213	  0.225	 -0.031	  0.319	  0.403	  0.675	 -9.753	 -0.001	  0.000	 -0.009	 23.400	 98.941	 -0.408
60263	  0.225	 -0.025	  0.326	  0.301	  0.752	 -9.751	 -0.004	 -0.001	 -0.001	 23.400	 98.941	 -0.408
60313	  0.223	 -0.029	  0.323	  0.311	  0.719	 -9.750	 -0.006	  0.001	  0.007	 23.400	 98.946	 -0.848
60363	  0.227	 -0.030	  0.321	  0.266	  0.699	 -9.751	 -0.006	  0.005	 -0.000	 23.400	 98.941	 -0.408
60413	  0.228	 -0.026	  0.325	  0.308	  0.802	 -9.723	 -0.007	  0.005	  0.001	 23.400	 98.935	  0.122
60463	  0.226	 -0.031	  0.323	  0.335	  0.765	 -9.722	 -0.004	  0.005	 -0.002	 23.400	 98.935	  0.122
60513	  0.225	 -0.032	  0.319	  0.401	  0.813	 -9.682	 -0.002	  0.003	  0.009	 23.400	 98.941	 -0.408
60563	  0.224	 -0.031	  0.323	  0.358	  0.705	 -9.694	 -0.000	  0.000	  0.015	 23.400	 98.941	 -0.408
60613	  0.228	 -0.032	  0.323	  0.395	  0.693	 -9.717	  0.002	  0.000	 -0.003	 23.400	 98.930	  0.563
60663	  0.226	 -0.029	  0.322	  0.268	  0.710	 -9.741	 -0.002	 -0.001	  0.004	 23.400	 98.946	 -0.848
60713	  0.227	 -0.032	  0.324	  0.356	  0.680	 -9.721	 -0.005	  0.000	  0.007	 23.400	 98.930	  0.563
60763	  0.228	 -0.029	  0.321	  0.233	  0.713	 -9.772	 -0.005	  0.003	  0.001	 23.400	 98.930	  0.563
60812	  0.225	 -0.030	  0.325	  0.358	  0.720	 -9.751	 -0.008	  0.004	  0.004	 23.400	 98.941	 -0.408
60862	  0.224	 -0.031	  0.324	  0.324	  0.737	 -9.710	 -0.007	  0.005	 -0.004	 23.400	 98.930	  0.563
60912	  0.226	 -0.028	  0.319	  0.336	  0.872	 -9.701	 -0.002	  0.004	  0.011	 23.400	 98.941	 -0.408
60963	  0.224	 -0.031	  0.322	  0.376	  0.743	 -9.693	 -0.002	  0.002	  0.008	 23.400	 98.941	 -0.408
61013	  0.225	 -0.032	  0.321	  0.390	  0.794	 -9.734	  0.000	  0.001	 -0.000	 23.400	 98.930	  0.563
61063	  0.225	 -0.027	  0.323	  0.266	  0.694	 -9.710	 -0.000	 -0.001	  0.009	 23.400	 98.941	 -0.408
61112	  0.226	 -0.023	  0.318	  0.346	  0.656	 -9.696	 -0.001	  0.003	 -0.000	 23.400	 98.946	 -0.848
61162	  0.225	 -0.028	  0.321	  0.273	  0.680	 -9.738	 -0.007	  0.001	 -0.001	 23.400	 98.930	  0.563
61212	  0.227	 -0.032	  0.321	  0.353	  0.741	 -9.716	 -0.005	  0.003	  0.006	 23.400	 98.946	 -0.848
61262	  0.224	 -0.029	  0.324	  0.322	  0.750	 -9.765	 -0.008	  0.003	  0.001	 23.400	 98.946	 -0.848
61312	  0.224	 -0.025	  0.322	  0.372	  0.802	 -9.644	 -0.001	  0.004	 -0.006	 23.400	 98.930	  0.563
61362	  0.227	 -0.028	  0.326	  0.333	  0.802	 -9.685	  0.000	 -0.000	  0.005	 23.400	 98.930	  0.563
61413	  0.228	 -0.028	  0.322	  0.404	  0.777	 -9.748	  0.002	 -0.000	  0.008	 23.400	 98.930	  0.563
61462	  0.226	 -0.030	  0.325	  0.322	  0.702	 -9.724	  0.003	 -0.002	 -0.001	 23.400	 98.930	  0.563
61512	  0.226	 -0.030	  0.324	  0.286	  0.686	 -9.722	  0.000	 -0.001	  0.002	 23.400	 98.930	  0.563
61562	  0.226	 -0.028	  0.323	  0.286	  0.590	 -9.740	 -0.006	  0.001	  0.006	 23.400	 98.941	 -0.408
61612	  0.225	 -0.025	  0.323	  0.310	  0.640	 -9.767	 -0.011	  0.004	 -0.001	 23.400	 98.930	  0.563
61662	  0.227	 -0.032	  0.321	  0.308	  0.744	 -9.705	 -0.014	  0.007	 -0.009	 23.400	 98.946	 -0.848
61712	  0.224	 -0.029	  0.322	  0.321	  0.835	 -9.652	 -0.014	  0.004	  0.001	 23.400	 98.930	  0.563
61762	  0.226	 -0.032	  0.321	  0.365	  0.854	 -9.715	 -0.006	  0.002	  0.003	 23.400	 98.946	 -0.848
61812	  0.226	 -0.031	  0.322	  0.377	  0.815	 -9.692	  0.001	  0.001	 -0.001	 23.400	 98.941	 -0.408
61862	  0.227	 -0.028	  0.320	  0.342	  0.870	 -9.713	  0.005	  0.001	  0.001	 23.400	 98.941	 -0.408
61912	  0.225	 -0.029	  0.324	  0.281	  0.701	 -9.740	  0.004	 -0.001	  0.015	 23.400	 98.941	 -0.408
61962	  0.224	 -0.030	  0.324	  0.332	  0.609	 -9.789	  0.001	  0.001	  0.003	 23.400	 98.930	  0.563
62012	  0.225	 -0.031	  0.321	  0.258	  0.607	 -9.762	 -0.004	  0.003	 -0.000	 23.400	 98.923	  1.180
62062	  0.226	 -0.030	  0.324	  0.259	  0.622	 -9.714	 -0.012	  0.003	 -0.005	 23.400	 98.930	  0.563
62112	  0.227	 -0.028	  0.325	  0.334	  0.759	 -9.706	 -0.011	  0.005	 -0.007	 23.400	 98.930	  0.563
62162	  0.226	 -0.031	  0.325	  0.414	  0.825	 -9.737	 -0.011	  0.004	 -0.009	 23.400	 98.930	  0.563
62212	  0.225	 -0.027	  0.323	  0.396	  0.863	 -9.714	 -0.004	  0.001	 -0.020	 23.400	 98.946	 -0.848
62262	  0.225	 -0.029	  0.322	  0.254	  0.922	 -9.683	  0.001	 -0.003	  0.005	 23.400	 98.930	  0.563
62312	  0.226	 -0.028	  0.318	  0.390	  0.862	 -9.704	  0.007	 -0.003	  0.018	 23.400	 98.930	  0.563
62362	  0.226	 -0.024	  0.322	  0.261	  0.614	 -9.754	  0.004	 -0.002	  0.011	 23.400	 98.946	 -0.848
62412	  0.228	 -0.023	  0.321	  0.251	  0.744	 -9.727	  0.002	  0.004	  0.003	 23.400	 98.941	 -0.408
62462	  0.225	 -0.030	  0.322	  0.218	  0.561	 -9.796	 -0.005	  0.007	  0.017	 23.400	 98.930	  0.563
62512	  0.224	 -0.031	  0.323	  0.391	  0.612	 -9.745	 -0.010	  0.007	  0.002	 23.400	 98.930	  0.563
62562	  0.224	 -0.030	  0.323	  0.315	  0.717	 -9.699	 -0.012	  0.006	 -0.013	 23.400	 98.941	 -0.408
62612	  0.225	 -0.025	  0.318	  0.339	  0.859	 -9.704	 -0.013	  0.005	  0.009	 23.400	 98.930	  0.563
62662	  0.224	 -0.031	  0.320	  0.390	  0.834	 -9.678	 -0.004	  0.000	  0.012	 23.400	 98.930	  0.563
62712	  0.225	 -0.030	  0.321	  0.446	  0.787	 -9.694	  0.003	 -0.002	 -0.010	 23.400	 98.941	 -0.408
62762	  0.227	 -0.031	  0.322	  0.259	  0.868	 -9.740	  0.006	 -0.003	 -0.009	 23.400	 98.941	 -0.408
62812	  0.225	 -0.031	  0.324	  0.200	  0.677	 -9.746	  0.005	 -0.003	  0.031	 23.400	 98.930	  0.563
62862	  0.224	 -0.030	  0.326	  0.361	  0.582	 -9.740	  0.002	  0.003	  0.004	 23.400	 98.930	  0.563
62912	  0.224	 -0.027	  0.324	  0.207	  0.626	 -9.763	 -0.004	  0.006	 -0.006	 23.400	 98.930	  0.563
62962	  0.226	 -0.032	  0.323	  0.330	  0.698	 -9.739	 -0.010	  0.007	  0.009	 23.400	 98.930	  0.563
63012	  0.226	 -0.028	  0.319	  0.361	  0.683	 -9.715	 -0.010	  0.007	  0.005	 23.400	 98.930	  0.563
63062	  0.225	 -0.029	  0.319	  0.431	  0.819	 -9.719	 -0.008	  0.003	 -0.007	 23.400	 98.930	  0.563
63112	  0.226	 -0.031	  0.321	  0.381	  0.853	 -9.657	 -0.003	  0.002	  0.008	 23.400	 98.935	  0.122
63162	  0.224	 -0.031	  0.319	  0.368	  0.820	 -9.673	  0.003	 -0.002	  0.004	 23.400	 98.941	 -0.408
63212	  0.224	 -0.028	  0.324	  0.349	  0.708	 -9.707	  0.005	 -0.002	 -0.004	 23.400	 98.935	  0.122
63262	  0.227	 -0.023	  0.322	  0.234	  0.693	 -9.735	  0.003	 -0.002	  0.012	 23.400	 98.930	  0.563
63312	  0.226	 -0.031	  0.322	  0.287	  0.601	 -9.782	 -0.000	  0.001	  0.009	 23.400	 98.930	  0.563
63362	  0.224	 -0.024	  0.318	  0.314	  0.622	 -9.757	 -0.008	  0.005	 -0.007	 23.400	 98.941	 -0.408
63412	  0.225	 -0.032	  0.322	  0.252	  0.712	 -9.795	 -0.010	  0.008	  0.005	 23.400	 98.930	  0.563
63462	  0.226	 -0.032	  0.325	  0.382	  0.745	 -9.727	 -0.010	  0.008	  0.009	 23.400	 98.930	  0.563
63513	  0.225	 -0.032	  0.324	  0.446	  0.856	 -9.718	 -0.006	  0.005	 -0.012	 23.400	 98.941	 -0.408
63562	  0.226	 -0.030	  0.324	  0.362	  0.864	 -9.745	 -0.002	  0.001	  0.003	 23.400	 98.923	  1.180
63613	  0.225	 -0.031	  0.321	  0.348	  0.789	 -9.704	  0.003	 -0.002	  0.013	 23.400	 98.930	  0.563
63662	  0.227	 -0.032	  0.324	  0.397	  0.632	 -9.699	  0.003	 -0.003	  0.007	 23.400	 98.930	  0.563
63713	  0.227	 -0.029	  0.324	  0.224	  0.701	 -9.735	  0.001	 -0.002	 -0.010	 23.400	 98.923	  1.180
63763	  0.225	 -0.029	  0.318	  0.251	  0.708	 -9.764	 -0.004	  0.003	  0.008	 23.400	 98.930	  0.563
63813	  0.226	 -0.028	  0.326	  0.322	  0.627	 -9.714	 -0.009	  0.006	  0.002	 23.400	 98.941	 -0.408
63863	  0.226	 -0.029	  0.319	  0.297	  0.762	 -9.722	 -0.010	  0.006	 -0.007	 23.400	 98.941	 -0.408
63913	  0.225	 -0.027	  0.323	  0.317	  0.816	 -9.720	 -0.010	  0.007	  0.013	 23.400	 98.930	  0.563
63963	  0.224	 -0.029	  0.325	  0.469	  0.778	 -9.691	 -0.005	  0.004	 -0.002	 23.400	 98.935	  0.122
64013	  0.227	 -0.032	  0.320	  0.399	  0.818	 -9.683	 -0.001	  0.001	 -0.004	 23.400	 98.930	  0.563
64063	  0.224	 -0.029	  0.325	  0.364	  0.808	 -9.697	  0.001	 -0.002	  0.003	 23.400	 98.935	  0.122
64113	  0.224	 -0.030	  0.325	  0.365	  0.672	 -9.755	  0.002	 -0.002	  0.010	 23.400	 98.946	 -0.848
64163	  0.224	 -0.028	  0.323	  0.285	  0.684	 -9.760	 -0.002	 -0.000	 -0.000	 23.400	 98.930	  0.563
64213	  0.224	 -0.032	  0.321	  0.247	  0.640	 -9.739	 -0.007	  0.004	 -0.000	 23.400	 98.946	 -0.848
64263	  0.224	 -0.032	  0.322	  0.272	  0.698	 -9.724	 -0.009	  0.006	  0.002	 23.400	 98.923	  1.180
64313	  0.225	 -0.029	  0.322	  0.342	  0.742	 -9.717	 -0.010	  0.006	 -0.007	 23.400	 98.935	  0.122
64363	  0.227	 -0.031	  0.324	  0.355	  0.844	 -9.678	 -0.007	  0.006	 -0.005	 23.400	 98.935	  0.122
64413	  0.225	 -0.032	  0.323	  0.384	  0.809	 -9.690	 -0.003	  0.002	  0.005	 23.400	 98.930	  0.563
64463	  0.225	 -0.024	  0.325	  0.379	  0.787	 -9.691	 -0.001	  0.001	  0.004	 23.400	 98.935	  0.122
64513	  0.225	 -0.029	  0.324	  0.343	  0.749	 -9.712	  0.002	 -0.002	  0.001	 23.400	 98.930	  0.563
64563	  0.227	 -0.028	  0.320	  0.298	  0.675	 -9.722	  0.000	 -0.002	  0.004	 23.400	 98.930	  0.563
64613	  0.226	 -0.027	  0.323	  0.291	  0.660	 -9.743	 -0.003	  0.000	  0.003	 23.400	 98.935	  0.122
64663	  0.227	 -0.030	  0.322	  0.247	  0.666	 -9.749	 -0.006	  0.004	 -0.001	 23.400	 98.941	 -0.408
64713	  0.227	 -0.032	  0.324	  0.300	  0.758	 -9.722	 -0.009	  0.006	  0.003	 23.400	 98.935	  0.122
64763	  0.227	 -0.032	  0.323	  0.340	  0.751	 -9.722	 -0.008	  0.006	  0.004	 23.400	 98.941	 -0.408
64812	  0.227	 -0.028	  0.324	  0.338	  0.838	 -9.734	 -0.004	  0.004	  0.005	 23.400	 98.946	 -0.848
64862	  0.225	 -0.023	  0.320	  0.406	  0.785	 -9.693	 -0.000	  0.003	  0.003	 23.400	 98.935	  0.122
64912	  0.229	 -0.032	  0.319	  0.402	  0.754	 -9.736	  0.002	 -0.001	  0.007	 23.400	 98.930	  0.563
64962	  0.224	 -0.032	  0.324	  0.337	  0.711	 -9.727	  0.001	 -0.003	 -0.000	 23.400	 98.930	  0.563
65012	  0.225	 -0.031	  0.327	  0.288	  0.686	 -9.735	 -0.003	 -0.002	  0.002	 23.400	 98.915	  1.885
65062	  0.226	 -0.031	  0.322	  0.320	  0.656	 -9.729	 -0.005	  0.001	 -0.004	 23.400	 98.946	 -0.848
65112	  0.228	 -0.032	  0.323	  0.283	  0.698	 -9.750	 -0.009	  0.003	  0.002	 23.400	 98.935	  0.122
65163	  0.223	 -0.032	  0.324	  0.279	  0.767	 -9.726	 -0.008	  0.007	 -0.006	 23.400	 98.930	  0.563
65212	  0.227	 -0.029	  0.324	  0.332	  0.803	 -9.695	 -0.006	  0.007	  0.002	 23.400	 98.930	  0.563
65262	  0.228	 -0.029	  0.323	  0.346	  0.870	 -9.702	 -0.003	  0.004	  0.011	 23.400	 98.930	  0.563
65312	  0.227	 -0.030	  0.324	  0.391	  0.725	 -9.690	  0.003	  0.003	  0.009	 23.400	 98.941	 -0.408
65362	  0.226	 -0.031	  0.322	  0.342	  0.753	 -9.691	  0.004	  0.002	  0.004	 23.400	 98.930	  0.563
65412	  0.226	 -0.028	  0.321	  0.299	  0.676	 -9.714	  0.003	 -0.000	  0.015	 23.400	 98.946	 -0.848
65462	  0.222	 -0.031	  0.324	  0.368	  0.579	 -9.760	 -0.003	 -0.001	  0.014	 23.400	 98.935	  0.122
65512	  0.224	 -0.030	  0.322	  0.285	  0.648	 -9.718	 -0.006	  0.002	 -0.015	 23.400	 98.930	  0.563
65562	  0.227	 -0.032	  0.316	  0.268	  0.764	 -9.718	 -0.009	  0.004	 -0.000	 23.400	 98.930	  0.563
65612	  0.225	 -0.029	  0.318	  0.347	  0.757	 -9.659	 -0.009	  0.004	 -0.001	 23.400	 98.930	  0.563
65662	  0.228	 -0.032	  0.323	  0.319	  0.842	 -9.690	 -0.006	  0.004	 -0.005	 23.400	 98.941	 -0.408
65712	  0.226	 -0.029	  0.319	  0.397	  0.832	 -9.695	 -0.001	  0.002	  0.008	 23.400	 98.946	 -0.848
65762	  0.226	 -0.030	  0.324	  0.356	  0.769	 -9.714	  0.002	  0.002	  0.004	 23.400	 98.935	  0.122
65812	  0.227	 -0.032	  0.324	  0.315	  0.762	 -9.695	  0.004	 -0.001	  0.007	 23.400	 98.930	  0.563
65862	  0.226	 -0.030	  0.322	  0.328	  0.651	 -9.746	  0.002	 -0.001	  0.013	 23.400	 98.946	 -0.848
65912	  0.228	 -0.025	  0.321	  0.336	  0.630	 -9.765	 -0.003	  0.001	 -0.003	 23.400	 98.930	  0.563
65962	  0.226	 -0.031	  0.322	  0.253	  0.699	 -9.716	 -0.008	  0.003	 -0.003	 23.400	 98.935	  0.122
66012	  0.227	 -0.034	  0.325	  0.363	  0.674	 -9.739	 -0.010	  0.004	  0.011	 23.400	 98.946	 -0.848
66062	  0.226	 -0.032	  0.319	  0.354	  0.779	 -9.701	 -0.008	  0.005	 -0.016	 23.400	 98.930	  0.563
66112	  0.226	 -0.030	  0.322	  0.326	  0.861	 -9.715	 -0.005	  0.003	  0.001	 23.400	 98.930	  0.563
66162	  0.224	 -0.026	  0.324	  0.350	  0.793	 -9.731	 -0.000	  0.000	  0.019	 23.400	 98.941	 -0.408
66212	  0.225	 -0.032	  0.322	  0.340	  0.728	 -9.700	  0.002	  0.002	  0.003	 23.400	 98.930	  0.563
66262	  0.224	 -0.028	  0.319	  0.309	  0.740	 -9.708	  0.003	  0.003	 -0.003	 23.400	 98.935	  0.122
66312	  0.223	 -0.034	  0.323	  0.281	  0.680	 -9.735	 -0.002	  0.002	  0.017	 23.400	 98.935	  0.122
66362	  0.223	 -0.028	  0.322	  0.348	  0.620	 -9.751	 -0.005	  0.003	  0.005	 23.400	 98.935	  0.122
66412	  0.227	 -0.030	  0.321	  0.292	  0.718	 -9.720	 -0.010	  0.004	 -0.004	 23.400	 98.935	  0.122
66462	  0.227	 -0.029	  0.322	  0.428	  0.674	 -9.743	 -0.011	  0.005	 -0.005	 23.400	 98.941	 -0.408
66512	  0.225	 -0.026	  0.325	  0.290	  0.840	 -9.700	 -0.009	  0.002	 -0.015	 23.400	 98.919	  1.532
66562	  0.226	 -0.026	  0.325	  0.374	  0.919	 -9.700	 -0.004	 -0.000	  0.012	 23.400	 98.946	 -0.848
66612	  0.225	 -0.029	  0.323	  0.325	  0.760	 -9.753	  0.001	 -0.001	  0.003	 23.400	 98.930	  0.563
66662	  0.229	 -0.026	  0.324	  0.286	  0.783	 -9.694	  0.005	 -0.001	 -0.007	 23.400	 98.935	  0.122
66712	  0.227	 -0.030	  0.320	  0.247	  0.740	 -9.743	  0.004	  0.001	  0.009	 23.400	 98.935	  0.122
66762	  0.228	 -0.027	  0.324	  0.365	  0.625	 -9.716	 -0.001	  0.004	  0.014	 23.400	 98.941	 -0.408
66812	  0.224	 -0.031	  0.320	  0.305	  0.670	 -9.756	 -0.006	  0.005	 -0.006	 23.400	 98.946	 -0.848
66862	  0.226	 -0.031	  0.321	  0.332	  0.725	 -9.738	 -0.008	  0.004	  0.004	 23.400	 98.935	  0.122
66912	  0.226	 -0.026	  0.322	  0.399	  0.724	 -9.715	 -0.009	  0.004	  0.005	 23.400	 98.923	  1.180
66962	  0.228	 -0.031	  0.324	  0.429	  0.744	 -9.741	 -0.008	  0.003	 -0.017	 23.400	 98.935	  0.122
67012	  0.226	 -0.032	  0.321	  0.292	  0.892	 -9.690	 -0.003	 -0.000	 -0.009	 23.400	 98.930	  0.563
67062	  0.226	 -0.028	  0.323	  0.332	  0.810	 -9.731	 -0.001	 -0.002	  0.014	 23.400	 98.935	  0.122
67112	  0.225	 -0.029	  0.325	  0.316	  0.738	 -9.741	  0.003	 -0.001	  0.006	 23.400	 98.946	 -0.848
67162	  0.225	 -0.028	  0.323	  0.255	  0.744	 -9.744	  0.002	  0.003	 -0.012	 23.400	 98.941	 -0.408
67212	  0.225	 -0.028	  0.319	  0.256	  0.693	 -9.717	 -0.002	  0.003	  0.013	 23.400	 98.935	  0.122
67262	  0.228	 -0.031	  0.323	  0.373	  0.652	 -9.713	 -0.003	  0.005	  0.013	 23.400	 98.935	  0.122
67312	  0.225	 -0.032	  0.324	  0.378	  0.704	 -9.758	 -0.007	  0.006	 -0.008	 23.400	 98.946	 -0.848
67362	  0.226	 -0.031	  0.325	  0.392	  0.748	 -9.694	 -0.007	  0.002	 -0.004	 23.400	 98.935	  0.122
67412	  0.226	 -0.024	  0.321	  0.314	  0.801	 -9.721	 -0.005	 -0.000	  0.007	 23.400	 98.946	 -0.848
67462	  0.223	 -0.029	  0.325	  0.424	  0.725	 -9.699	 -0.004	  0.000	  0.000	 23.400	 98.935	  0.122
67512	  0.225	 -0.033	  0.322	  0.321	  0.779	 -9.752	 -0.002	 -0.002	 -0.005	 23.400	 98.935	  0.122
67562	  0.224	 -0.025	  0.319	  0.245	  0.800	 -9.744	  0.001	 -0.000	 -0.001	 23.400	 98.930	  0.563
67612	  0.225	 -0.030	  0.322	  0.280	  0.744	 -9.732	  0.001	  0.002	  0.010	 23.400	 98.946	 -0.848
67662	  0.225	 -0.026	  0.319	  0.329	  0.680	 -9.744	 -0.001	  0.005	  0.013	 23.400	 98.946	 -0.848
67712	  0.226	 -0.029	  0.324	  0.316	  0.674	 -9.758	 -0.003	  0.007	  0.003	 23.400	 98.935	  0.122
67762	  0.223	 -0.027	  0.323	  0.389	  0.671	 -9.732	 -0.006	  0.005	  0.000	 23.400	 98.935	  0.122
67812	  0.226	 -0.029	  0.321	  0.426	  0.681	 -9.689	 -0.008	  0.002	 -0.012	 23.400	 98.935	  0.122
67862	  0.225	 -0.028	  0.323	  0.318	  0.851	 -9.730	 -0.007	 -0.000	 -0.007	 23.400	 98.946	 -0.848
67912	  0.224	 -0.030	  0.324	  0.376	  0.791	 -9.718	 -0.004	 -0.000	  0.016	 23.400	 98.941	 -0.408
67962	  0.225	 -0.031	  0.323	  0.385	  0.719	 -9.731	 -0.001	 -0.001	 -0.013	 23.400	 98.941	 -0.408
68012	  0.227	 -0.029	  0.323	  0.228	  0.796	 -9.725	 -0.000	 -0.000	 -0.020	 23.400	 98.935	  0.122
68062	  0.227	 -0.030	  0.325	  0.206	  0.781	 -9.720	 -0.001	  0.001	  0.027	 23.400	 98.923	  1.180
68112	  0.224	 -0.030	  0.323	  0.325	  0.620	 -9.764	 -0.002	  0.004	  0.020	 23.400	 98.930	  0.563
68162	  0.226	 -0.033	  0.322	  0.335	  0.673	 -9.709	 -0.004	  0.008	 -0.021	 23.400	 98.935	  0.122
68212	  0.225	 -0.030	  0.322	  0.226	  0.810	 -9.730	 -0.011	  0.006	  0.018	 23.400	 98.923	  1.180
68262	  0.228	 -0.027	  0.324	  0.453	  0.701	 -9.723	 -0.006	  0.007	  0.020	 23.400	 98.935	  0.122
68312	  0.226	 -0.033	  0.320	  0.473	  0.760	 -9.728	 -0.005	  0.005	 -0.012	 23.400	 98.946	 -0.848
68362	  0.228	 -0.029	  0.321	  0.383	  0.823	 -9.711	 -0.002	  0.002	 -0.007	 23.400	 98.930	  0.563
68412	  0.225	 -0.033	  0.328	  0.322	  0.819	 -9.679	 -0.000	 -0.002	  0.013	 23.400	 98.935	  0.122
68462	  0.224	 -0.030	  0.320	  0.322	  0.704	 -9.746	 -0.001	 -0.003	  0.004	 23.400	 98.935	  0.122
68512	  0.227	 -0.035	  0.324	  0.257	  0.725	 -9.728	  0.002	  0.001	 -0.007	 23.400	 98.935	  0.122
68562	  0.225	 -0.028	  0.322	  0.250	  0.743	 -9.707	 -0.002	  0.002	  0.014	 23.400	 98.946	 -0.848
68612	  0.225	 -0.024	  0.318	  0.288	  0.641	 -9.744	 -0.005	  0.004	  0.008	 23.400	 98.930	  0.563
68662	  0.225	 -0.030	  0.322	  0.344	  0.682	 -9.736	 -0.005	  0.007	 -0.005	 23.400	 98.923	  1.180
68712	  0.223	 -0.026	  0.324	  0.399	  0.760	 -9.709	 -0.006	  0.005	  0.007	 23.400	 98.946	 -0.848
68762	  0.225	 -0.028	  0.322	  0.424	  0.753	 -9.718	 -0.006	  0.004	 -0.002	 23.400	 98.946	 -0.848
68812	  0.227	 -0.033	  0.322	  0.333	  0.814	 -9.715	 -0.002	  0.000	 -0.001	 23.400	 98.946	 -0.848
68862	  0.225	 -0.031	  0.323	  0.371	  0.770	 -9.698	 -0.000	 -0.002	  0.005	 23.400	 98.935	  0.122
68912	  0.225	 -0.033	  0.325	  0.318	  0.723	 -9.728	 -0.000	 -0.001	  0.002	 23.400	 98.935	  0.122
68962	  0.225	 -0.030	  0.318	  0.278	  0.701	 -9.687	 -0.002	  0.000	 -0.006	 23.400	 98.935	  0.122
69012	  0.225	 -0.031	  0.322	  0.338	  0.655	 -9.699	 -0.004	  0.003	 -0.007	 23.400	 98.935	  0.122
69062	  0.225	 -0.029	  0.324	  0.247	  0.746	 -9.717	 -0.005	  0.004	 -0.010	 23.400	 98.935	  0.122
69112	  0.225	 -0.030	  0.322	  0.266	  0.808	 -9.737	 -0.004	  0.005	  0.018	 23.400	 98.946	 -0.848
69162	  0.225	 -0.030	  0.318	  0.432	  0.693	 -9.708	 -0.003	  0.003	  0.006	 23.400	 98.941	 -0.408
69212	  0.227	 -0.028	  0.324	  0.317	  0.801	 -9.724	 -0.003	  0.004	 -0.002	 23.400	 98.941	 -0.408
69263	  0.224	 -0.031	  0.323	  0.340	  0.784	 -9.732	 -0.001	  0.001	  0.016	 23.400	 98.935	  0.122
69312	  0.224	 -0.028	  0.324	  0.410	  0.657	 -9.709	  0.001	  0.000	  0.000	 23.400	 98.935	  0.122
69362	  0.226	 -0.026	  0.317	  0.318	  0.721	 -9.719	 -0.001	 -0.000	  0.001	 23.400	 98.935	  0.122
69413	  0.226	 -0.027	  0.323	  0.267	  0.730	 -9.764	 -0.001	  0.001	  0.009	 23.400	 98.923	  1.180
69463	  0.226	 -0.033	  0.322	  0.376	  0.658	 -9.725	 -0.003	  0.003	 -0.003	 23.400	 98.935	  0.122
69512	  0.227	 -0.029	  0.319	  0.276	  0.702	 -9.754	 -0.006	  0.003	 -0.005	 23.400	 98.935	  0.122
69562	  0.227	 -0.031	  0.321	  0.304	  0.768	 -9.726	 -0.006	  0.004	  0.013	 23.400	 98.935	  0.122
69613	  0.225	 -0.029	  0.321	  0.347	  0.690	 -9.731	 -0.005	  0.004	  0.002	 23.400	 98.930	  0.563
69663	  0.223	 -0.032	  0.324	  0.331	  0.784	 -9.726	 -0.004	  0.005	 -0.005	 23.400	 98.946	 -0.848
69713	  0.224	 -0.025	  0.324	  0.270	  0.799	 -9.691	 -0.004	  0.002	  0.011	 23.400	 98.935	  0.122
69763	  0.226	 -0.027	  0.322	  0.432	  0.690	 -9.755	 -0.003	  0.002	  0.000	 23.400	 98.935	  0.122
69813	  0.227	 -0.031	  0.326	  0.342	  0.716	 -9.725	 -0.003	  0.001	 -0.025	 23.400	 98.923	  1.180
69863	  0.228	 -0.026	  0.324	  0.310	  0.818	 -9.700	 -0.004	 -0.001	  0.003	 23.400	 98.946	 -0.848
69913	  0.227	 -0.031	  0.324	  0.336	  0.691	 -9.711	 -0.004	 -0.001	  0.010	 23.400	 98.935	  0.122
69963	  0.227	 -0.032	  0.324	  0.334	  0.744	 -9.751	 -0.003	  0.000	 -0.010	 23.400	 98.923	  1.180
70013	  0.225	 -0.022	  0.325	  0.298	  0.742	 -9.744	 -0.003	  0.003	 -0.009	 23.400	 98.935	  0.122
70063	  0.222	 -0.025	  0.322	  0.284	  0.765	 -9.752	 -0.001	  0.005	  0.012	 23.400	 98.950	 -1.201
70113	  0.226	 -0.029	  0.323	  0.342	  0.703	 -9.723	 -0.003	  0.004	  0.012	 23.400	 98.935	  0.122
70163	  0.224	 -0.029	  0.319	  0.371	  0.702	 -9.735	 -0.003	  0.004	  0.007	 23.400	 98.946	 -0.848
70213	  0.226	 -0.032	  0.325	  0.336	  0.727	 -9.734	 -0.003	  0.003	  0.000	 23.400	 98.935	  0.122
70263	  0.226	 -0.030	  0.321	  0.324	  0.751	 -9.715	 -0.003	  0.003	 -0.000	 23.400	 98.935	  0.122
70313	  0.225	 -0.028	  0.323	  0.359	  0.682	 -9.711	 -0.003	  0.002	  0.013	 23.400	 98.935	  0.122
70363	  0.228	 -0.024	  0.324	  0.344	  0.725	 -9.726	 -0.003	  0.000	 -0.002	 23.400	 98.935	  0.122
70413	  0.227	 -0.026	  0.323	  0.267	  0.775	 -9.715	 -0.002	 -0.002	 -0.001	 23.400	 98.935	  0.122
70463	  0.226	 -0.029	  0.325	  0.311	  0.783	 -9.730	 -0.002	  0.001	  0.011	 23.400	 98.946	 -0.848
70513	  0.224	 -0.028	  0.323	  0.276	  0.727	 -9.710	 -0.001	  0.002	  0.014	 23.400	 98.957	 -1.818
70563	  0.229	 -0.032	  0.320	  0.359	  0.684	 -9.699	 -0.002	  0.003	 -0.000	 23.400	 98.946	 -0.848
70613	  0.226	 -0.030	  0.324	  0.333	  0.698	 -9.775	 -0.005	  0.004	 -0.007	 23.400	 98.935	  0.122
70663	  0.227	 -0.029	  0.327	  0.360	  0.706	 -9.739	 -0.005	  0.004	  0.003	 23.400	 98.935	  0.122
70713	  0.226	 -0.027	  0.321	  0.424	  0.697	 -9.701	 -0.006	  0.000	 -0.007	 23.400	 98.935	  0.122
70763	  0.227	 -0.025	  0.322	  0.371	  0.772	 -9.743	 -0.005	 -0.001	 -0.011	 23.400	 98.923	  1.180
70813	  0.226	 -0.030	  0.322	  0.233	  0.860	 -9.681	 -0.002	 -0.002	  0.021	 23.400	 98.935	  0.122
70863	  0.228	 -0.029	  0.322	  0.325	  0.671	 -9.744	  0.000	  0.002	  0.007	 23.400	 98.939	 -0.232
70913	  0.226	 -0.030	  0.319	  0.314	  0.711	 -9.703	  0.001	  0.004	 -0.010	 23.400	 98.935	  0.122
70963	  0.224	 -0.029	  0.320	  0.210	  0.706	 -9.696	 -0.002	  0.004	  0.005	 23.400	 98.935	  0.122
71013	  0.226	 -0.027	  0.324	  0.342	  0.675	 -9.729	 -0.005	  0.006	  0.013	 23.400	 98.930	  0.563
71063	  0.225	 -0.026	  0.323	  0.384	  0.662	 -9.715	 -0.007	  0.005	  0.004	 23.400	 98.935	  0.122
71113	  0.225	 -0.030	  0.323	  0.355	  0.722	 -9.669	 -0.007	  0.003	 -0.011	 23.400	 98.935	  0.122
71163	  0.226	 -0.028	  0.323	  0.361	  0.761	 -9.704	 -0.006	  0.000	  0.000	 23.400	 98.935	  0.122
71213	  0.227	 -0.028	  0.319	  0.384	  0.722	 -9.728	 -0.004	 -0.000	 -0.006	 23.400	 98.939	 -0.232
71263	  0.225	 -0.031	  0.321	  0.289	  0.820	 -9.708	 -0.002	 -0.001	 -0.009	 23.400	 98.935	  0.122
71313	  0.226	 -0.025	  0.321	  0.238	  0.741	 -9.710	 -0.001	  0.000	  0.008	 23.400	 98.935	  0.122
71363	  0.225	 -0.028	  0.321	  0.269	  0.719	 -9.753	 -0.001	  0.003	  0.004	 23.400	 98.935	  0.122
71413	  0.226	 -0.029	  0.321	  0.282	  0.683	 -9.740	 -0.002	  0.004	 -0.002	 23.400	 98.941	 -0.408
71462	  0.226	 -0.026	  0.322	  0.344	  0.725	 -9.712	 -0.005	  0.007	  0.003	 23.400	 98.946	 -0.848
71512	  0.227	 -0.028	  0.324	  0.394	  0.686	 -9.714	 -0.005	  0.006	  0.012	 23.400	 98.935	  0.122
71563	  0.226	 -0.031	  0.321	  0.353	  0.758	 -9.707	 -0.006	  0.004	 -0.000	 23.400	 98.935	  0.122
71613	  0.225	 -0.031	  0.324	  0.404	  0.721	 -9.688	 -0.005	  0.001	 -0.006	 23.400	 98.946	 -0.848
71662	  0.225	 -0.030	  0.326	  0.359	  0.781	 -9.692	 -0.005	 -0.002	  0.001	 23.400	 98.935	  0.122
71712	  0.228	 -0.028	  0.320	  0.306	  0.758	 -9.732	 -0.001	 -0.002	  0.003	 23.400	 98.923	  1.180
71762	  0.226	 -0.028	  0.325	  0.310	  0.740	 -9.750	 -0.001	 -0.001	 -0.003	 23.400	 98.923	  1.180
71812	  0.224	 -0.030	  0.320	  0.311	  0.707	 -9.741	 -0.002	  0.001	  0.006	 23.400	 98.935	  0.122
71862	  0.226	 -0.032	  0.325	  0.260	  0.766	 -9.721	 -0.003	  0.004	  0.007	 23.400	 98.935	  0.122
71912	  0.225	 -0.031	  0.318	  0.306	  0.698	 -9.714	 -0.004	  0.005	  0.008	 23.400	 98.928	  0.739
71962	  0.225	 -0.031	  0.322	  0.345	  0.732	 -9.730	 -0.005	  0.007	  0.004	 23.400	 98.935	  0.122
72012	  0.227	 -0.034	  0.322	  0.337	  0.751	 -9.742	 -0.006	  0.005	  0.002	 23.400	 98.923	  1.180
72062	  0.226	 -0.031	  0.321	  0.358	  0.833	 -9.725	 -0.004	  0.002	  0.017	 23.400	 98.935	  0.122
72112	  0.227	 -0.030	  0.324	  0.439	  0.745	 -9.683	  0.001	  0.003	  0.006	 23.400	 98.935	  0.122
72162	  0.225	 -0.029	  0.325	  0.323	  0.798	 -9.727	  0.004	 -0.003	  0.013	 23.400	 98.946	 -0.848
72212	  0.225	 -0.028	  0.319	  0.345	  0.700	 -9.698	  0.006	 -0.003	 -0.001	 23.400	 98.935	  0.122
72262	  0.226	 -0.031	  0.323	  0.248	  0.688	 -9.761	  0.003	 -0.002	  0.006	 23.400	 98.923	  1.180
72312	  0.226	 -0.030	  0.324	  0.332	  0.589	 -9.761	 -0.003	  0.001	  0.017	 23.400	 98.935	  0.122
72362	  0.226	 -0.030	  0.322	  0.274	  0.582	 -9.764	 -0.006	  0.005	 -0.002	 23.400	 98.935	  0.122
72412	  0.229	 -0.029	  0.321	  0.296	  0.726	 -9.706	 -0.009	  0.007	 -0.004	 23.400	 98.935	  0.122
72462	  0.226	 -0.028	  0.325	  0.377	  0.701	 -9.737	 -0.011	  0.009	  0.004	 23.400	 98.928	  0.739
72512	  0.227	 -0.032	  0.320	  0.336	  0.816	 -9.692	 -0.009	  0.008	 -0.006	 23.400	 98.939	 -0.232
72562	  0.225	 -0.030	  0.324	  0.384	  0.787	 -9.706	 -0.007	  0.003	  0.002	 23.400	 98.946	 -0.848
72612	  0.225	 -0.024	  0.324	  0.373	  0.787	 -9.709	 -0.002	  0.001	  0.007	 23.400	 98.912	  2.149
72662	  0.224	 -0.029	  0.324	  0.371	  0.772	 -9.718	  0.002	 -0.000	 -0.001	 23.400	 98.923	  1.180
72712	  0.227	 -0.032	  0.319	  0.272	  0.754	 -9.719	  0.003	 -0.001	  0.005	 23.400	 98.923	  1.180
72762	  0.225	 -0.030	  0.322	  0.267	  0.626	 -9.738	  0.001	  0.000	  0.017	 23.400	 98.935	  0.122
72812	  0.226	 -0.032	  0.326	  0.283	  0.636	 -9.747	 -0.002	  0.003	 -0.005	 23.400	 98.935	  0.122
72862	  0.228	 -0.030	  0.316	  0.274	  0.695	 -9.711	 -0.005	  0.004	  0.011	 23.400	 98.935	  0.122
72912	  0.226	 -0.032	  0.320	  0.309	  0.666	 -9.754	 -0.008	  0.007	  0.006	 23.400	 98.923	  1.180
72962	  0.223	 -0.031	  0.320	  0.336	  0.737	 -9.690	 -0.008	  0.005	  0.001	 23.400	 98.935	  0.122
73012	  0.226	 -0.027	  0.322	  0.425	  0.749	 -9.731	 -0.008	  0.005	  0.002	 23.400	 98.939	 -0.232
73062	  0.226	 -0.031	  0.325	  0.347	  0.807	 -9.696	 -0.005	  0.002	 -0.006	 23.400	 98.923	  1.180
73112	  0.223	 -0.032	  0.322	  0.391	  0.733	 -9.678	 -0.003	  0.000	 -0.009	 23.400	 98.935	  0.122
73162	  0.226	 -0.026	  0.324	  0.356	  0.792	 -9.729	 -0.002	 -0.003	  0.001	 23.400	 98.939	 -0.232
73212	  0.225	 -0.033	  0.324	  0.300	  0.747	 -9.718	 -0.002	 -0.003	  0.010	 23.400	 98.923	  1.180
73262	  0.223	 -0.029	  0.325	  0.253	  0.754	 -9.741	 -0.000	  0.001	  0.002	 23.400	 98.935	  0.122
73312	  0.224	 -0.029	  0.325	  0.298	  0.689	 -9.721	  0.001	  0.003	  0.009	 23.400	 98.935	  0.122
73362	  0.223	 -0.029	  0.324	  0.286	  0.718	 -9.749	 -0.002	  0.005	  0.006	 23.400	 98.935	  0.122
73412	  0.224	 -0.021	  0.324	  0.359	  0.718	 -9.724	 -0.002	  0.006	  0.007	 23.400	 98.935	  0.122
73462	  0.224	 -0.027	  0.325	  0.371	  0.666	 -9.701	 -0.004	  0.004	  0.009	 23.400	 98.935	  0.122
73512	  0.226	 -0.033	  0.317	  0.357	  0.761	 -9.702	 -0.004	  0.002	  0.000	 23.400	 98.935	  0.122
73562	  0.227	 -0.031	  0.328	  0.376	  0.726	 -9.705	 -0.005	  0.001	 -0.002	 23.400	 98.939	 -0.232
73612	  0.226	 -0.030	  0.325	  0.397	  0.738	 -9.714	 -0.002	 -0.001	  0.002	 23.400	 98.923	  1.180
73662	  0.225	 -0.027	  0.323	  0.222	  0.807	 -9.697	 -0.001	 -0.002	  0.001	 23.400	 98.935	  0.122
73712	  0.226	 -0.030	  0.325	  0.324	  0.757	 -9.719	  0.002	 -0.001	  0.010	 23.400	 98.935	  0.122
73762	  0.226	 -0.031	  0.321	  0.239	  0.719	 -9.710	  0.001	  0.001	  0.016	 23.400	 98.923	  1.180
73812	  0.227	 -0.030	  0.325	  0.287	  0.734	 -9.696	  0.003	  0.002	  0.013	 23.400	 98.950	 -1.201
73862	  0.228	 -0.026	  0.324	  0.311	  0.627	 -9.739	  0.001	  0.006	  0.011	 23.400	 98.946	 -0.848
73912	  0.228	 -0.029	  0.324	  0.349	  0.649	 -9.741	 -0.003	  0.006	  0.008	 23.400	 98.935	  0.122
73962	  0.225	 -0.030	  0.324	  0.369	  0.653	 -9.742	 -0.005	  0.005	  0.002	 23.400	 98.935	  0.122
74012	  0.228	 -0.030	  0.321	  0.389	  0.669	 -9.702	 -0.008	  0.003	  0.004	 23.400	 98.935	  0.122
74062	  0.227	 -0.025	  0.327	  0.365	  0.705	 -9.708	 -0.008	  0.000	 -0.006	 23.400	 98.935	  0.122
74112	  0.228	 -0.031	  0.330	  0.379	  0.771	 -9.702	 -0.006	 -0.001	 -0.003	 23.400	 98.923	  1.180
74162	  0.234	 -0.034	  0.324	  0.313	  0.767	 -9.705	 -0.002	 -0.002	 -0.001	 23.400	 98.935	  0.122
74212	  0.237	 -0.035	  0.322	  0.283	  0.782	 -9.693	  0.000	 -0.001	  0.001	 23.400	 98.939	 -0.232
74262	  0.238	 -0.036	  0.316	  0.278	  0.725	 -9.712	  0.001	  0.003	  0.005	 23.400	 98.935	  0.122
74312	  0.229	 -0.041	  0.312	  0.282	  0.682	 -9.769	  0.000	  0.004	  0.009	 23.400	 98.935	  0.122
74362	  0.220	 -0.039	  0.314	  0.319	  0.646	 -9.755	 -0.001	  0.005	  0.008	 23.400	 98.939	 -0.232
74412	  0.217	 -0.037	  0.318	  0.345	  0.682	 -9.730	 -0.004	  0.005	 -0.001	 23.400	 98.935	  0.122
74462	  0.218	 -0.038	  0.325	  0.368	  0.694	 -9.702	 -0.006	  0.003	  0.005	 23.400	 98.935	  0.122
74512	  0.217	 -0.033	  0.320	  0.386	  0.713	 -9.708	 -0.007	  0.000	  0.002	 23.400	 98.950	 -1.201
74563	  0.218	 -0.035	  0.325	  0.325	  0.761	 -9.716	 -0.005	 -0.000	 -0.008	 23.400	 98.946	 -0.848
74612	  0.218	 -0.033	  0.329	  0.375	  0.779	 -9.729	 -0.003	  0.001	  0.006	 23.400	 98.935	  0.122
74662	  0.220	 -0.032	  0.324	  0.288	  0.752	 -9.721	 -0.003	 -0.001	 -0.003	 23.400	 98.935	  0.122
74712	  0.220	 -0.033	  0.326	  0.286	  0.722	 -9.766	 -0.000	  0.002	  0.001	 23.400	 98.946	 -0.848
74763	  0.219	 -0.036	  0.326	  0.279	  0.704	 -9.708	 -0.001	  0.003	  0.006	 23.400	 98.939	 -0.232
74812	  0.221	 -0.034	  0.325	  0.295	  0.700	 -9.729	 -0.002	  0.003	  0.006	 23.400	 98.935	  0.122
74863	  0.221	 -0.035	  0.320	  0.338	  0.659	 -9.737	 -0.004	  0.005	  0.011	 23.400	 98.935	  0.122
74912	  0.222	 -0.035	  0.326	  0.368	  0.703	 -9.707	 -0.007	  0.004	 -0.006	 23.400	 98.935	  0.122
74962	  0.219	 -0.036	  0.323	  0.398	  0.732	 -9.713	 -0.006	  0.004	  0.002	 23.400	 98.950	 -1.201
75013	  0.219	 -0.034	  0.326	  0.362	  0.720	 -9.727	 -0.006	  0.001	  0.007	 23.400	 98.935	  0.122
75063	  0.216	 -0.036	  0.327	  0.289	  0.767	 -9.723	 -0.004	 -0.001	 -0.017	 23.400	 98.923	  1.180
75113	  0.219	 -0.037	  0.327	  0.317	  0.745	 -9.735	 -0.002	 -0.001	  0.011	 23.400	 98.939	 -0.232
75162	  0.219	 -0.036	  0.326	  0.305	  0.728	 -9.723	  0.000	  0.002	  0.002	 23.400	 98.935	  0.122
75213	  0.220	 -0.034	  0.328	  0.239	  0.745	 -9.712	 -0.000	  0.004	  0.002	 23.400	 98.935	  0.122
75263	  0.218	 -0.037	  0.329	  0.308	  0.709	 -9.734	 -0.001	  0.006	  0.020	 23.400	 98.939	 -0.232
75313	  0.221	 -0.036	  0.326	  0.382	  0.601	 -9.733	 -0.003	  0.007	  0.001	 23.400	 98.939	 -0.232
75363	  0.221	 -0.029	  0.325	  0.358	  0.700	 -9.712	 -0.006	  0.005	 -0.001	 23.400	 98.923	  1.180
75413	  0.221	 -0.037	  0.328	  0.412	  0.710	 -9.705	 -0.007	  0.000	  0.006	 23.400	 98.935	  0.122
75463	  0.221	 -0.037	  0.325	  0.406	  0.687	 -9.747	 -0.008	 -0.002	 -0.013	 23.400	 98.939	 -0.232
75513	  0.220	 -0.036	  0.329	  0.312	  0.797	 -9.697	 -0.006	 -0.002	 -0.006	 23.400	 98.939	 -0.232
75563	  0.221	 -0.033	  0.329	  0.256	  0.803	 -9.723	 -0.004	 -0.001	  0.007	 23.400	 98.939	 -0.232
75613	  0.219	 -0.031	  0.329	  0.292	  0.746	 -9.687	  0.001	  0.001	  0.001	 23.400	 98.939	 -0.232
75663	  0.221	 -0.036	  0.328	  0.236	  0.753	 -9.708	  0.002	  0.004	  0.005	 23.400	 98.939	 -0.232
75713	  0.219	 -0.035	  0.322	  0.360	  0.668	 -9.698	  0.000	  0.006	  0.020	 23.400	 98.935	  0.122
75763	  0.219	 -0.036	  0.327	  0.350	  0.637	 -9.754	 -0.002	  0.007	 -0.003	 23.400	 98.935	  0.122
75813	  0.220	 -0.038	  0.327	  0.344	  0.721	 -9.736	 -0.005	  0.005	  0.010	 23.400	 98.928	  0.739
75863	  0.223	 -0.033	  0.328	  0.432	  0.644	 -9.742	 -0.007	  0.003	  0.005	 23.400	 98.935	  0.122
75913	  0.220	 -0.034	  0.327	  0.399	  0.721	 -9.735	 -0.006	 -0.001	 -0.013	 23.400	 98.923	  1.180
75963	  0.221	 -0.038	  0.326	  0.296	  0.796	 -9.744	 -0.007	 -0.002	  0.004	 23.400	 98.935	  0.122
76013	  0.220	 -0.033	  0.322	  0.365	  0.718	 -9.695	 -0.005	 -0.002	 -0.005	 23.400	 98.939	 -0.232
76063	  0.221	 -0.035	  0.324	  0.249	  0.758	 -9.721	 -0.002	 -0.002	 -0.004	 23.400	 98.923	  1.180
76113	  0.222	 -0.036	  0.325	  0.242	  0.786	 -9.721	 -0.001	  0.003	  0.007	 23.400	 98.923	  1.180
76163	  0.221	 -0.038	  0.327	  0.321	  0.685	 -9.706	 -0.000	  0.005	  0.004	 23.400	 98.935	  0.122
76213	  0.220	 -0.036	  0.327	  0.315	  0.693	 -9.733	 -0.001	  0.008	  0.007	 23.400	 98.935	  0.122
76263	  0.221	 -0.031	  0.328	  0.308	  0.717	 -9.725	 -0.003	  0.007	  0.011	 23.400	 98.935	  0.122
76313	  0.222	 -0.038	  0.324	  0.444	  0.657	 -9.725	 -0.003	  0.006	  0.007	 23.400	 98.935	  0.122
76363	  0.220	 -0.038	  0.328	  0.379	  0.705	 -9.708	 -0.005	  0.003	 -0.004	 23.400	 98.950	 -1.201
76413	  0.221	 -0.038	  0.331	  0.367	  0.735	 -9.706	 -0.005	 -0.001	 -0.007	 23.400	 98.939	 -0.232
76463	  0.219	 -0.039	  0.328	  0.375	  0.713	 -9.720	 -0.005	 -0.002	  0.005	 23.400	 98.939	 -0.232
76512	  0.219	 -0.034	  0.324	  0.284	  0.729	 -9.739	 -0.004	 -0.001	 -0.002	 23.400	 98.935	  0.122
76562	  0.222	 -0.036	  0.330	  0.295	  0.762	 -9.734	 -0.002	  0.002	 -0.003	 23.400	 98.928	  0.739
76612	  0.222	 -0.038	  0.324	  0.278	  0.718	 -9.714	 -0.001	  0.004	  0.009	 23.400	 98.923	  1.180
76662	  0.220	 -0.035	  0.325	  0.301	  0.674	 -9.752	 -0.002	  0.006	  0.004	 23.400	 98.939	 -0.232
76712	  0.221	 -0.037	  0.325	  0.382	  0.688	 -9.733	 -0.004	  0.006	  0.006	 23.400	 98.939	 -0.232
76762	  0.220	 -0.033	  0.319	  0.352	  0.672	 -9.733	 -0.005	  0.004	  0.007	 23.400	 98.935	  0.122
76812	  0.220	 -0.036	  0.327	  0.374	  0.714	 -9.702	 -0.005	  0.003	 -0.005	 23.400	 98.923	  1.180
76862	  0.220	 -0.030	  0.327	  0.398	  0.710	 -9.705	 -0.005	 -0.001	  0.002	 23.400	 98.939	 -0.232
76912	  0.220	 -0.036	  0.327	  0.325	  0.734	 -9.711	 -0.004	 -0.000	  0.003	 23.400	 98.928	  0.739
76962	  0.220	 -0.037	  0.329	  0.294	  0.727	 -9.710	 -0.003	 -0.000	 -0.009	 23.400	 98.935	  0.122
77012	  0.220	 -0.038	  0.328	  0.337	  0.721	 -9.753	 -0.003	 -0.001	  0.009	 23.400	 98.939	 -0.232
77062	  0.222	 -0.038	  0.327	  0.215	  0.731	 -9.735	 -0.002	  0.002	  0.002	 23.400	 98.939	 -0.232
77112	  0.221	 -0.033	  0.325	  0.318	  0.709	 -9.746	 -0.001	  0.005	 -0.003	 23.400	 98.923	  1.180
77162	  0.221	 -0.033	  0.326	  0.297	  0.713	 -9.734	 -0.002	  0.006	  0.016	 23.400	 98.928	  0.739
77212	  0.221	 -0.033	  0.329	  0.340	  0.696	 -9.728	 -0.003	  0.007	  0.008	 23.400	 98.939	 -0.232
77262	  0.221	 -0.037	  0.328	  0.401	  0.661	 -9.712	 -0.004	  0.006	 -0.002	 23.400	 98.935	  0.122
77312	  0.219	 -0.036	  0.329	  0.377	  0.741	 -9.719	 -0.006	  0.001	  0.004	 23.400	 98.928	  0.739
77362	  0.223	 -0.034	  0.328	  0.375	  0.729	 -9.706	 -0.007	 -0.001	  0.000	 23.400	 98.935	  0.122
77412	  0.223	 -0.034	  0.326	  0.339	  0.720	 -9.694	 -0.004	 -0.003	 -0.011	 23.400	 98.935	  0.122
77462	  0.220	 -0.038	  0.334	  0.289	  0.775	 -9.704	 -0.003	 -0.001	  0.006	 23.400	 98.935	  0.122
77512	  0.220	 -0.037	  0.329	  0.257	  0.733	 -9.737	 -0.001	  0.002	  0.002	 23.400	 98.939	 -0.232
77562	  0.220	 -0.033	  0.328	  0.287	  0.705	 -9.730	 -0.000	  0.005	 -0.003	 23.400	 98.935	  0.122
77612	  0.223	 -0.039	  0.328	  0.280	  0.717	 -9.749	 -0.002	  0.006	  0.014	 23.400	 98.935	  0.122
77662	  0.221	 -0.037	  0.325	  0.344	  0.725	 -9.750	 -0.003	  0.008	  0.006	 23.400	 98.939	 -0.232
77712	  0.225	 -0.033	  0.331	  0.385	  0.692	 -9.721	 -0.003	  0.007	  0.001	 23.400	 98.939	 -0.232
77762	  0.220	 -0.035	  0.333	  0.378	  0.728	 -9.694	 -0.005	  0.001	  0.007	 23.400	 98.928	  0.739
77812	  0.221	 -0.031	  0.328	  0.409	  0.722	 -9.722	 -0.006	 -0.000	 -0.006	 23.400	 98.923	  1.180
77862	  0.221	 -0.028	  0.329	  0.342	  0.715	 -9.684	 -0.004	 -0.002	 -0.001	 23.400	 98.928	  0.739
77912	  0.221	 -0.037	  0.325	  0.320	  0.725	 -9.717	 -0.003	 -0.003	 -0.006	 23.400	 98.939	 -0.232
77962	  0.222	 -0.032	  0.326	  0.253	  0.742	 -9.716	 -0.003	  0.001	 -0.003	 23.400	 98.935	  0.122
78012	  0.220	 -0.035	  0.323	  0.244	  0.720	 -9.717	 -0.002	  0.001	  0.009	 23.400	 98.928	  0.739
78062	  0.223	 -0.032	  0.329	  0.273	  0.725	 -9.713	 -0.002	  0.007	 -0.001	 23.400	 98.928	  0.739
78112	  0.220	 -0.033	  0.327	  0.313	  0.674	 -9.718	 -0.003	  0.008	  0.009	 23.400	 98.939	 -0.232
78162	  0.220	 -0.031	  0.326	  0.351	  0.709	 -9.743	 -0.003	  0.007	  0.012	 23.400	 98.935	  0.122
78212	  0.220	 -0.031	  0.328	  0.378	  0.706	 -9.717	 -0.003	  0.004	  0.001	 23.400	 98.928	  0.739
78262	  0.220	 -0.034	  0.329	  0.436	  0.709	 -9.715	 -0.004	  0.002	  0.003	 23.400	 98.935	  0.122
78312	  0.220	 -0.030	  0.328	  0.370	  0.711	 -9.706	 -0.004	 -0.001	  0.001	 23.400	 98.928	  0.739
78362	  0.220	 -0.033	  0.329	  0.376	  0.720	 -9.719	 -0.004	 -0.001	 -0.007	 23.400	 98.935	  0.122
78412	  0.220	 -0.033	  0.325	  0.298	  0.680	 -9.737	 -0.004	 -0.003	  0.001	 23.400	 98.935	  0.122
78462	  0.221	 -0.025	  0.328	  0.262	  0.746	 -9.731	 -0.005	  0.000	 -0.005	 23.400	 98.939	 -0.232
78512	  0.219	 -0.031	  0.327	  0.235	  0.741	 -9.725	 -0.004	  0.003	  0.002	 23.400	 98.935	  0.122
78562	  0.220	 -0.032	  0.329	  0.300	  0.730	 -9.727	 -0.002	  0.008	  0.006	 23.400	 98.939	 -0.232
78612	  0.220	 -0.031	  0.325	  0.353	  0.721	 -9.745	 -0.003	  0.007	  0.006	 23.400	 98.935	  0.122
78662	  0.220	 -0.033	  0.328	  0.396	  0.682	 -9.736	 -0.004	  0.005	  0.007	 23.400	 98.928	  0.739
78712	  0.219	 -0.033	  0.327	  0.415	  0.690	 -9.703	 -0.003	  0.002	  0.000	 23.400	 98.935	  0.122
78762	  0.220	 -0.032	  0.328	  0.420	  0.721	 -9.728	 -0.003	  0.002	  0.003	 23.400	 98.939	 -0.232
78812	  0.220	 -0.030	  0.326	  0.346	  0.693	 -9.715	 -0.004	 -0.001	 -0.003	 23.400	 98.935	  0.122
78862	  0.219	 -0.027	  0.326	  0.301	  0.726	 -9.739	 -0.004	 -0.000	 -0.006	 23.400	 98.939	 -0.232
78912	  0.219	 -0.030	  0.328	  0.330	  0.706	 -9.751	 -0.004	  0.001	  0.005	 23.400	 98.923	  1.180
78962	  0.220	 -0.032	  0.327	  0.225	  0.766	 -9.714	 -0.003	  0.003	  0.001	 23.400	 98.939	 -0.232
79012	  0.220	 -0.033	  0.328	  0.333	  0.733	 -9.739	 -0.003	  0.006	  0.005	 23.400	 98.935	  0.122
79062	  0.219	 -0.035	  0.328	  0.325	  0.716	 -9.755	 -0.003	  0.006	  0.007	 23.400	 98.939	 -0.232
79112	  0.219	 -0.026	  0.322	  0.357	  0.763	 -9.750	 -0.001	  0.004	  0.005	 23.400	 98.928	  0.739
79162	  0.219	 -0.034	  0.326	  0.400	  0.649	 -9.706	 -0.003	  0.004	  0.009	 23.400	 98.939	 -0.232
79212	  0.220	 -0.033	  0.325	  0.389	  0.718	 -9.733	 -0.004	  0.001	 -0.003	 23.400	 98.939	 -0.232
79262	  0.220	 -0.028	  0.327	  0.360	  0.687	 -9.740	 -0.004	 -0.000	 -0.003	 23.400	 98.939	 -0.232
79312	  0.219	 -0.031	  0.325	  0.339	  0.677	 -9.740	 -0.006	 -0.002	  0.001	 23.400	 98.928	  0.739
79362	  0.218	 -0.030	  0.324	  0.259	  0.757	 -9.751	 -0.004	 -0.000	 -0.005	 23.400	 98.923	  1.180
79412	  0.220	 -0.030	  0.326	  0.279	  0.747	 -9.724	 -0.004	  0.003	 -0.002	 23.400	 98.935	  0.122
79462	  0.220	 -0.030	  0.325	  0.269	  0.730	 -9.732	 -0.004	  0.004	  0.003	 23.400	 98.939	 -0.232
79512	  0.219	 -0.030	  0.326	  0.270	  0.756	 -9.735	 -0.003	  0.005	  0.010	 23.400	 98.928	  0.739
79562	  0.220	 -0.032	  0.327	  0.371	  0.686	 -9.731	 -0.001	  0.006	  0.003	 23.400	 98.928	  0.739
79612	  0.219	 -0.033	  0.327	  0.405	  0.708	 -9.731	 -0.001	  0.004	  0.008	 23.400	 98.939	 -0.232
79661	  0.220	 -0.031	  0.326	  0.392	  0.686	 -9.746	 -0.002	  0.002	  0.003	 23.400	 98.939	 -0.232
79711	  0.218	 -0.032	  0.327	  0.427	  0.663	 -9.711	 -0.005	 -0.000	  0.001	 23.400	 98.939	 -0.232
79761	  0.220	 -0.031	  0.329	  0.365	  0.681	 -9.746	 -0.005	 -0.003	 -0.005	 23.400	 98.928	  0.739
79811	  0.220	 -0.028	  0.328	  0.301	  0.751	 -9.729	 -0.007	 -0.003	 -0.004	 23.400	 98.928	  0.739
79861	  0.220	 -0.031	  0.328	  0.278	  0.731	 -9.713	 -0.006	 -0.001	 -0.002	 23.400	 98.935	  0.122
79911	  0.220	 -0.029	  0.324	  0.259	  0.760	 -9.732	 -0.003	  0.003	 -0.001	 23.400	 98.939	 -0.232
79961	  0.219	 -0.027	  0.326	  0.258	  0.789	 -9.721	 -0.003	  0.004	  0.009	 23.400	 98.939	 -0.232
80011	  0.220	 -0.031	  0.326	  0.320	  0.711	 -9.705	 -0.001	  0.007	  0.007	 23.400	 98.939	 -0.232
80061	  0.219	 -0.030	  0.324	  0.357	  0.708	 -9.722	 -0.000	  0.006	  0.006	 23.400	 98.939	 -0.232
80111	  0.219	 -0.030	  0.327	  0.379	  0.665	 -9.709	 -0.004	  0.004	  0.011	 23.400	 98.939	 -0.232
80161	  0.218	 -0.031	  0.326	  0.428	  0.659	 -9.721	 -0.004	  0.002	  0.005	 23.400	 98.928	  0.739
80211	  0.220	 -0.031	  0.326	  0.380	  0.674	 -9.739	 -0.005	 -0.002	 -0.005	 23.400	 98.939	 -0.232
80261	  0.218	 -0.029	  0.324	  0.322	  0.726	 -9.731	 -0.007	 -0.002	 -0.002	 23.400	 98.939	 -0.232
80311	  0.219	 -0.024	  0.324	  0.271	  0.730	 -9.736	 -0.006	 -0.001	 -0.006	 23.400	 98.950	 -1.201
80361	  0.220	 -0.028	  0.327	  0.277	  0.756	 -9.734	 -0.005	  0.001	 -0.003	 23.400	 98.939	 -0.232
80412	  0.220	 -0.032	  0.326	  0.278	  0.746	 -9.726	 -0.003	  0.003	  0.008	 23.400	 98.928	  0.739
80461	  0.218	 -0.023	  0.325	  0.309	  0.727	 -9.720	 -0.000	  0.006	 -0.001	 23.400	 98.928	  0.739
80512	  0.220	 -0.030	  0.327	  0.320	  0.737	 -9.726	 -0.000	  0.006	  0.010	 23.400	 98.939	 -0.232
80561	  0.219	 -0.031	  0.327	  0.371	  0.691	 -9.737	 -0.002	  0.005	  0.011	 23.400	 98.939	 -0.232
80612	  0.219	 -0.031	  0.328	  0.377	  0.640	 -9.746	 -0.003	  0.003	 -0.001	 23.400	 98.939	 -0.232
80661	  0.219	 -0.030	  0.324	  0.379	  0.685	 -9.738	 -0.004	  0.002	 -0.001	 23.400	 98.939	 -0.232
80712	  0.220	 -0.028	  0.324	  0.326	  0.702	 -9.725	 -0.007	 -0.000	  0.001	 23.400	 98.939	 -0.232
80761	  0.218	 -0.030	  0.329	  0.346	  0.730	 -9.717	 -0.005	 -0.001	 -0.002	 23.400	 98.939	 -0.232
80811	  0.217	 -0.029	  0.328	  0.272	  0.733	 -9.745	 -0.004	  0.001	 -0.002	 23.400	 98.939	 -0.232
80862	  0.220	 -0.032	  0.327	  0.301	  0.758	 -9.701	 -0.003	  0.003	 -0.000	 23.400	 98.939	 -0.232
80912	  0.218	 -0.031	  0.327	  0.303	  0.740	 -9.717	 -0.003	  0.003	  0.007	 23.400	 98.939	 -0.232
80962	  0.219	 -0.033	  0.330	  0.298	  0.736	 -9.728	 -0.002	  0.005	  0.007	 23.400	 98.928	  0.739
81012	  0.217	 -0.032	  0.328	  0.322	  0.686	 -9.739	 -0.002	  0.006	  0.007	 23.400	 98.939	 -0.232
81062	  0.220	 -0.030	  0.328	  0.395	  0.673	 -9.697	 -0.001	  0.005	  0.005	 23.400	 98.939	 -0.232
81112	  0.220	 -0.029	  0.324	  0.358	  0.682	 -9.718	 -0.005	  0.002	 -0.000	 23.400	 98.943	 -0.583
81162	  0.221	 -0.033	  0.320	  0.374	  0.705	 -9.720	 -0.005	  0.000	  0.001	 23.400	 98.939	 -0.232
81212	  0.218	 -0.029	  0.324	  0.340	  0.675	 -9.711	 -0.007	 -0.001	 -0.004	 23.400	 98.939	 -0.232
81262	  0.218	 -0.028	  0.325	  0.321	  0.748	 -9.710	 -0.006	 -0.000	 -0.005	 23.400	 98.939	 -0.232
81312	  0.218	 -0.032	  0.322	  0.282	  0.730	 -9.730	 -0.003	  0.001	  0.003	 23.400	 98.939	 -0.232
81362	  0.218	 -0.026	  0.322	  0.278	  0.756	 -9.691	 -0.003	  0.003	  0.003	 23.400	 98.939	 -0.232
81412	  0.219	 -0.028	  0.326	  0.264	  0.734	 -9.726	 -0.002	  0.005	  0.003	 23.400	 98.939	 -0.232
81462	  0.217	 -0.028	  0.325	  0.325	  0.710	 -9.700	 -0.002	  0.005	  0.010	 23.400	 98.928	  0.739
81512	  0.218	 -0.030	  0.325	  0.336	  0.707	 -9.759	 -0.003	  0.004	  0.006	 23.400	 98.939	 -0.232
81562	  0.219	 -0.032	  0.326	  0.378	  0.691	 -9.701	 -0.004	  0.004	  0.004	 23.400	 98.928	  0.739
81612	  0.220	 -0.026	  0.328	  0.383	  0.665	 -9.681	 -0.004	  0.002	  0.004	 23.400	 98.943	 -0.583
81662	  0.219	 -0.031	  0.325	  0.337	  0.670	 -9.711	 -0.005	 -0.000	 -0.007	 23.400	 98.928	  0.739
81713	  0.219	 -0.032	  0.326	  0.320	  0.713	 -9.759	 -0.006	 -0.000	  0.001	 23.400	 98.939	 -0.232
81763	  0.219	 -0.023	  0.321	  0.343	  0.711	 -9.716	 -0.006	  0.000	 -0.002	 23.400	 98.939	 -0.232
81812	  0.219	 -0.026	  0.324	  0.221	  0.796	 -9.721	 -0.003	  0.002	 -0.006	 23.400	 98.939	 -0.232
81862	  0.218	 -0.027	  0.325	  0.287	  0.752	 -9.697	 -0.002	  0.005	  0.003	 23.400	 98.943	 -0.583
81912	  0.217	 -0.032	  0.328	  0.324	  0.705	 -9.722	 -0.001	  0.006	  0.015	 23.400	 98.939	 -0.232
81962	  0.217	 -0.031	  0.321	  0.328	  0.728	 -9.707	 -0.001	  0.005	  0.006	 23.400	 98.928	  0.739
82012	  0.218	 -0.030	  0.327	  0.348	  0.677	 -9.724	 -0.003	  0.004	  0.003	 23.400	 98.939	 -0.232
82062	  0.217	 -0.028	  0.326	  0.411	  0.653	 -9.764	 -0.003	  0.003	  0.009	 23.400	 98.928	  0.739
82112	  0.220	 -0.028	  0.325	  0.322	  0.712	 -9.739	 -0.005	  0.001	 -0.006	 23.400	 98.928	  0.739
82162	  0.220	 -0.031	  0.326	  0.358	  0.670	 -9.725	 -0.006	 -0.001	  0.002	 23.400	 98.928	  0.739
82212	  0.220	 -0.032	  0.326	  0.274	  0.736	 -9.725	 -0.005	 -0.002	 -0.004	 23.400	 98.928	  0.739
82262	  0.218	 -0.032	  0.328	  0.331	  0.746	 -9.720	 -0.003	 -0.000	 -0.009	 23.400	 98.939	 -0.232
82312	  0.218	 -0.031	  0.326	  0.275	  0.751	 -9.682	 -0.003	  0.003	  0.018	 23.400	 98.928	  0.739
82362	  0.219	 -0.024	  0.325	  0.288	  0.727	 -9.708	 -0.002	  0.005	 -0.004	 23.400	 98.943	 -0.583
82412	  0.220	 -0.032	  0.327	  0.335	  0.726	 -9.711	 -0.002	  0.005	  0.006	 23.400	 98.939	 -0.232
82462	  0.218	 -0.033	  0.327	  0.388	  0.714	 -9.694	 -0.003	  0.005	  0.012	 23.400	 98.939	 -0.232
82512	  0.217	 -0.030	  0.324	  0.356	  0.707	 -9.741	 -0.003	  0.004	 -0.002	 23.400	 98.943	 -0.583
82562	  0.219	 -0.031	  0.327	  0.396	  0.686	 -9.750	 -0.005	  0.002	  0.006	 23.400	 98.943	 -0.583
82612	  0.217	 -0.031	  0.324	  0.358	  0.697	 -9.737	 -0.007	 -0.001	  0.001	 23.400	 98.939	 -0.232
82662	  0.218	 -0.029	  0.326	  0.329	  0.757	 -9.706	 -0.006	  0.000	 -0.007	 23.400	 98.928	  0.739
82712	  0.219	 -0.029	  0.326	  0.305	  0.710	 -9.702	 -0.005	  0.001	 -0.000	 23.400	 98.932	  0.386
82762	  0.217	 -0.030	  0.326	  0.263	  0.721	 -9.704	 -0.004	  0.000	  0.003	 23.400	 98.954	 -1.553
82812	  0.219	 -0.028	  0.328	  0.278	  0.738	 -9.714	 -0.003	  0.003	  0.000	 23.400	 98.939	 -0.232
82862	  0.218	 -0.030	  0.327	  0.322	  0.725	 -9.750	 -0.002	  0.005	  0.006	 23.400	 98.939	 -0.232
82912	  0.219	 -0.031	  0.328	  0.339	  0.695	 -9.696	 -0.002	  0.004	  0.011	 23.400	 98.928	  0.739
82962	  0.215	 -0.029	  0.327	  0.358	  0.678	 -9.721	 -0.002	  0.002	  0.001	 23.400	 98.939	 -0.232
83012	  0.218	 -0.029	  0.326	  0.353	  0.685	 -9.710	 -0.004	  0.003	  0.003	 23.400	 98.939	 -0.232
83062	  0.217	 -0.028	  0.326	  0.361	  0.708	 -9.733	 -0.006	 -0.000	  0.002	 23.400	 98.939	 -0.232
83112	  0.219	 -0.031	  0.322	  0.329	  0.694	 -9.720	 -0.006	 -0.001	 -0.010	 23.400	 98.923	  1.180
83162	  0.218	 -0.028	  0.326	  0.318	  0.745	 -9.736	 -0.004	  0.000	  0.001	 23.400	 98.932	  0.386
83212	  0.220	 -0.029	  0.330	  0.275	  0.749	 -9.702	 -0.004	  0.003	  0.003	 23.400	 98.939	 -0.232
83262	  0.218	 -0.026	  0.326	  0.309	  0.737	 -9.704	 -0.001	  0.003	  0.005	 23.400	 98.928	  0.739
83312	  0.218	 -0.025	  0.329	  0.273	  0.741	 -9.728	 -0.002	  0.005	  0.006	 23.400	 98.932	  0.386
83362	  0.220	 -0.030	  0.324	  0.357	  0.723	 -9.722	 -0.002	  0.004	  0.003	 23.400	 98.928	  0.739
83412	  0.216	 -0.030	  0.326	  0.347	  0.697	 -9.740	 -0.002	  0.004	  0.005	 23.400	 98.928	  0.739
83462	  0.220	 -0.032	  0.329	  0.348	  0.748	 -9.714	 -0.004	  0.003	  0.007	 23.400	 98.928	  0.739
83512	  0.218	 -0.030	  0.327	  0.352	  0.680	 -9.681	 -0.003	  0.001	 -0.007	 23.400	 98.939	 -0.232
83562	  0.217	 -0.031	  0.328	  0.364	  0.701	 -9.718	 -0.005	 -0.000	  0.002	 23.400	 98.939	 -0.232
83612	  0.218	 -0.029	  0.326	  0.296	  0.741	 -9.720	 -0.005	 -0.000	  0.003	 23.400	 98.928	  0.739
83662	  0.218	 -0.031	  0.328	  0.335	  0.724	 -9.719	 -0.003	  0.001	 -0.006	 23.400	 98.928	  0.739
83712	  0.218	 -0.028	  0.327	  0.302	  0.750	 -9.714	 -0.003	  0.002	 -0.001	 23.400	 98.939	 -0.232
83762	  0.219	 -0.029	  0.325	  0.269	  0.738	 -9.714	 -0.003	  0.003	  0.017	 23.400	 98.932	  0.386
83812	  0.220	 -0.030	  0.326	  0.349	  0.659	 -9.739	 -0.002	  0.005	 -0.003	 23.400	 98.939	 -0.232
83862	  0.219	 -0.030	  0.326	  0.349	  0.737	 -9.686	 -0.004	  0.004	  0.002	 23.400	 98.943	 -0.583
83912	  0.218	 -0.033	  0.320	  0.364	  0.678	 -9.723	 -0.004	  0.002	  0.010	 23.400	 98.928	  0.739
83962	  0.219	 -0.029	  0.327	  0.407	  0.678	 -9.719	 -0.005	  0.001	 -0.002	 23.400	 98.928	  0.739
84012	  0.218	 -0.026	  0.325	  0.284	  0.781	 -9.735	 -0.005	  0.000	 -0.009	 23.400	 98.928	  0.739
84062	  0.218	 -0.029	  0.327	  0.382	  0.698	 -9.720	 -0.005	  0.000	  0.006	 23.400	 98.928	  0.739
84112	  0.219	 -0.030	  0.324	  0.281	  0.730	 -9.714	 -0.005	  0.001	  0.002	 23.400	 98.943	 -0.583
84162	  0.218	 -0.028	  0.328	  0.255	  0.769	 -9.712	 -0.003	  0.002	 -0.007	 23.400	 98.939	 -0.232
84212	  0.219	 -0.026	  0.325	  0.346	  0.721	 -9.711	 -0.002	  0.004	  0.010	 23.400	 98.939	 -0.232
84262	  0.219	 -0.023	  0.326	  0.272	  0.746	 -9.720	 -0.002	  0.005	  0.008	 23.400	 98.939	 -0.232
84312	  0.218	 -0.028	  0.327	  0.340	  0.687	 -9.738	 -0.001	  0.006	  0.001	 23.400	 98.928	  0.739
84362	  0.216	 -0.027	  0.327	  0.379	  0.660	 -9.708	 -0.002	  0.005	  0.011	 23.400	 98.939	 -0.232
84412	  0.219	 -0.028	  0.324	  0.369	  0.711	 -9.731	 -0.006	  0.001	 -0.006	 23.400	 98.928	  0.739
84462	  0.219	 -0.029	  0.322	  0.350	  0.709	 -9.718	 -0.006	 -0.000	  0.007	 23.400	 98.932	  0.386
84512	  0.217	 -0.029	  0.326	  0.367	  0.678	 -9.739	 -0.004	 -0.000	 -0.003	 23.400	 98.939	 -0.232
84562	  0.217	 -0.032	  0.319	  0.308	  0.751	 -9.718	 -0.004	 -0.001	 -0.006	 23.400	 98.943	 -0.583
84612	  0.220	 -0.034	  0.326	  0.288	  0.760	 -9.718	 -0.003	  0.001	  0.004	 23.400	 98.939	 -0.232
84662	  0.219	 -0.025	  0.328	  0.324	  0.701	 -9.734	 -0.002	  0.003	  0.005	 23.400	 98.928	  0.739
84712	  0.220	 -0.027	  0.326	  0.277	  0.756	 -9.739	 -0.002	  0.004	  0.002	 23.400	 98.928	  0.739
84762	  0.218	 -0.030	  0.325	  0.366	  0.698	 -9.723	 -0.002	  0.006	  0.005	 23.400	 98.943	 -0.583
84812	  0.221	 -0.028	  0.326	  0.307	  0.714	 -9.687	 -0.003	  0.004	  0.013	 23.400	 98.932	  0.386
84862	  0.217	 -0.032	  0.328	  0.349	  0.698	 -9.742	 -0.002	  0.002	  0.001	 23.400	 98.939	 -0.232
84912	  0.218	 -0.030	  0.327	  0.370	  0.681	 -9.753	 -0.004	  0.002	 -0.002	 23.400	 98.928	  0.739
84962	  0.219	 -0.023	  0.327	  0.333	  0.705	 -9.740	 -0.007	  0.001	  0.004	 23.400	 98.939	 -0.232
85012	  0.215	 -0.034	  0.327	  0.327	  0.708	 -9.721	 -0.004	  0.001	 -0.004	 23.400	 98.939	 -0.232
85062	  0.217	 -0.031	  0.326	  0.341	  0.717	 -9.715	 -0.006	  0.000	 -0.005	 23.400	 98.939	 -0.232
85112	  0.216	 -0.031	  0.325	  0.267	  0.756	 -9.722	 -0.003	  0.001	  0.003	 23.400	 98.928	  0.739
85162	  0.221	 -0.029	  0.329	  0.296	  0.743	 -9.693	 -0.002	  0.003	  0.008	 23.400	 98.928	  0.739
85212	  0.218	 -0.029	  0.322	  0.337	  0.710	 -9.725	 -0.001	  0.004	  0.003	 23.400	 98.921	  1.356
85262	  0.217	 -0.028	  0.327	  0.325	  0.722	 -9.719	 -0.002	  0.005	  0.007	 23.400	 98.928	  0.739
85312	  0.218	 -0.031	  0.321	  0.355	  0.716	 -9.733	 -0.002	  0.004	  0.006	 23.400	 98.921	  1.356
85362	  0.218	 -0.031	  0.324	  0.374	  0.684	 -9.734	 -0.003	  0.003	  0.001	 23.400	 98.939	 -0.232
85412	  0.219	 -0.030	  0.329	  0.346	  0.703	 -9.749	 -0.005	  0.001	  0.002	 23.400	 98.928	  0.739
85462	  0.219	 -0.029	  0.322	  0.364	  0.713	 -9.737	 -0.005	  0.000	 -0.004	 23.400	 98.943	 -0.583
85512	  0.220	 -0.030	  0.328	  0.325	  0.727	 -9.695	 -0.005	  0.000	  0.001	 23.400	 98.928	  0.739
85562	  0.218	 -0.028	  0.325	  0.282	  0.762	 -9.758	 -0.004	  0.002	  0.004	 23.400	 98.943	 -0.583
85612	  0.217	 -0.025	  0.324	  0.283	  0.749	 -9.748	 -0.001	  0.004	  0.001	 23.400	 98.928	  0.739
85662	  0.218	 -0.031	  0.328	  0.337	  0.724	 -9.712	 -0.002	  0.004	  0.007	 23.400	 98.939	 -0.232
85712	  0.219	 -0.030	  0.325	  0.337	  0.683	 -9.723	 -0.001	  0.004	  0.007	 23.400	 98.932	  0.386
85762	  0.220	 -0.028	  0.324	  0.346	  0.699	 -9.739	 -0.003	  0.003	  0.002	 23.400	 98.939	 -0.232
85812	  0.220	 -0.034	  0.324	  0.364	  0.681	 -9.695	 -0.005	  0.002	 -0.001	 23.400	 98.932	  0.386
85862	  0.217	 -0.029	  0.324	  0.349	  0.692	 -9.737	 -0.007	 -0.001	  0.000	 23.400	 98.928	  0.739
85912	  0.218	 -0.029	  0.329	  0.320	  0.744	 -9.700	 -0.005	  0.001	 -0.000	 23.400	 98.928	  0.739
85962	  0.218	 -0.029	  0.325	  0.334	  0.761	 -9.703	 -0.004	  0.002	 -0.004	 23.400	 98.932	  0.386
86012	  0.220	 -0.026	  0.330	  0.338	  0.722	 -9.731	 -0.004	  0.002	  0.003	 23.400	 98.932	  0.386
86062	  0.220	 -0.024	  0.327	  0.260	  0.759	 -9.736	 -0.003	  0.001	  0.003	 23.400	 98.943	 -0.583
86112	  0.217	 -0.025	  0.327	  0.300	  0.748	 -9.757	 -0.002	  0.003	  0.003	 23.400	 98.939	 -0.232
86162	  0.220	 -0.033	  0.327	  0.333	  0.678	 -9.750	 -0.001	  0.004	  0.005	 23.400	 98.928	  0.739
86212	  0.214	 -0.030	  0.326	  0.332	  0.697	 -9.716	 -0.002	  0.003	  0.005	 23.400	 98.939	 -0.232
86263	  0.218	 -0.028	  0.327	  0.362	  0.695	 -9.724	 -0.003	  0.004	  0.004	 23.400	 98.939	 -0.232
86312	  0.214	 -0.030	  0.323	  0.360	  0.688	 -9.716	 -0.005	  0.000	 -0.000	 23.400	 98.943	 -0.583
86363	  0.215	 -0.030	  0.324	  0.330	  0.737	 -9.734	 -0.004	 -0.000	 -0.003	 23.400	 98.943	 -0.583
86413	  0.219	 -0.031	  0.327	  0.328	  0.709	 -9.736	 -0.005	  0.000	 -0.002	 23.400	 98.939	 -0.232
86463	  0.216	 -0.029	  0.328	  0.320	  0.742	 -9.706	 -0.004	  0.001	  0.001	 23.400	 98.943	 -0.583
86513	  0.217	 -0.031	  0.322	  0.268	  0.759	 -9.707	 -0.002	  0.003	  0.001	 23.400	 98.932	  0.386
86563	  0.219	 -0.028	  0.326	  0.328	  0.708	 -9.743	 -0.001	  0.004	  0.004	 23.400	 98.932	  0.386
86613	  0.219	 -0.024	  0.326	  0.259	  0.739	 -9.714	 -0.001	  0.004	  0.009	 23.400	 98.928	  0.739
86663	  0.216	 -0.026	  0.327	  0.367	  0.676	 -9.714	 -0.003	  0.005	  0.005	 23.400	 98.928	  0.739
86713	  0.219	 -0.029	  0.327	  0.381	  0.685	 -9.732	 -0.004	  0.004	 -0.000	 23.400	 98.939	 -0.232
86763	  0.218	 -0.028	  0.327	  0.306	  0.750	 -9.711	 -0.004	  0.003	  0.004	 23.400	 98.943	 -0.583
86813	  0.217	 -0.030	  0.326	  0.386	  0.688	 -9.733	 -0.005	  0.001	  0.003	 23.400	 98.943	 -0.583
86863	  0.219	 -0.034	  0.322	  0.350	  0.679	 -9.734	 -0.006	  0.000	 -0.004	 23.400	 98.939	 -0.232
86913	  0.218	 -0.030	  0.327	  0.277	  0.779	 -9.751	 -0.005	 -0.001	  0.001	 23.400	 98.939	 -0.232
86963	  0.218	 -0.029	  0.326	  0.325	  0.697	 -9.735	 -0.002	  0.002	  0.002	 23.400	 98.932	  0.386
87012	  0.221	 -0.029	  0.323	  0.308	  0.756	 -9.694	 -0.002	  0.003	  0.000	 23.400	 98.932	  0.386
87062	  0.219	 -0.028	  0.326	  0.303	  0.701	 -9.711	 -0.003	  0.003	  0.011	 23.400	 98.917	  1.708
87112	  0.218	 -0.030	  0.326	  0.340	  0.693	 -9.713	 -0.002	  0.006	  0.005	 23.400	 98.943	 -0.583
87162	  0.216	 -0.028	  0.321	  0.321	  0.694	 -9.698	 -0.003	  0.005	 -0.001	 23.400	 98.939	 -0.232
87212	  0.219	 -0.026	  0.322	  0.374	  0.699	 -9.736	 -0.004	  0.002	  0.005	 23.400	 98.943	 -0.583
87262	  0.216	 -0.031	  0.326	  0.363	  0.664	 -9.737	 -0.005	  0.000	 -0.001	 23.400	 98.943	 -0.583
87312	  0.217	 -0.025	  0.326	  0.334	  0.730	 -9.724	 -0.006	  0.001	 -0.005	 23.400	 98.932	  0.386
87362	  0.220	 -0.027	  0.322	  0.291	  0.732	 -9.731	 -0.005	 -0.001	  0.006	 23.400	 98.932	  0.386
87412	  0.217	 -0.030	  0.321	  0.318	  0.745	 -9.747	 -0.002	  0.001	 -0.006	 23.400	 98.928	  0.739
87462	  0.220	 -0.026	  0.325	  0.268	  0.755	 -9.740	 -0.001	  0.003	  0.002	 23.400	 98.939	 -0.232
87513	  0.218	 -0.030	  0.326	  0.343	  0.707	 -9.735	 -0.002	  0.005	  0.010	 23.400	 98.939	 -0.232
87562	  0.218	 -0.030	  0.328	  0.325	  0.678	 -9.743	 -0.003	  0.005	  0.008	 23.400	 98.921	  1.356
87612	  0.218	 -0.032	  0.325	  0.318	  0.734	 -9.716	 -0.001	  0.005	 -0.002	 23.400	 98.939	 -0.232
87662	  0.220	 -0.031	  0.327	  0.394	  0.647	 -9.725	 -0.005	  0.004	  0.010	 23.400	 98.950	 -1.201
87712	  0.219	 -0.025	  0.325	  0.384	  0.700	 -9.729	 -0.006	  0.002	 -0.002	 23.400	 98.928	  0.739
87762	  0.220	 -0.031	  0.326	  0.328	  0.740	 -9.737	 -0.004	  0.001	 -0.006	 23.400	 98.939	 -0.232
87812	  0.216	 -0.030	  0.325	  0.354	  0.704	 -9.689	 -0.005	 -0.001	  0.005	 23.400	 98.932	  0.386
87862	  0.217	 -0.027	  0.327	  0.301	  0.747	 -9.737	 -0.005	 -0.000	 -0.005	 23.400	 98.932	  0.386
87912	  0.220	 -0.027	  0.324	  0.300	  0.752	 -9.707	 -0.003	  0.001	  0.001	 23.400	 98.928	  0.739
87962	  0.218	 -0.030	  0.325	  0.289	  0.738	 -9.727	 -0.003	  0.004	  0.010	 23.400	 98.932	  0.386
88012	  0.219	 -0.030	  0.324	  0.315	  0.734	 -9.762	 -0.003	  0.005	 -0.001	 23.400	 98.928	  0.739
88062	  0.218	 -0.027	  0.326	  0.284	  0.730	 -9.706	 -0.003	  0.006	  0.007	 23.400	 98.943	 -0.583
88112	  0.217	 -0.031	  0.328	  0.379	  0.704	 -9.731	 -0.002	  0.004	  0.001	 23.400	 98.921	  1.356
88162	  0.218	 -0.031	  0.326	  0.346	  0.732	 -9.712	 -0.003	  0.003	  0.007	 23.400	 98.928	  0.739
88212	  0.217	 -0.026	  0.326	  0.361	  0.721	 -9.687	 -0.005	  0.002	 -0.004	 23.400	 98.928	  0.739
88262	  0.217	 -0.029	  0.324	  0.354	  0.710	 -9.726	 -0.005	  0.001	 -0.003	 23.400	 98.932	  0.386
88312	  0.220	 -0.030	  0.322	  0.304	  0.723	 -9.710	 -0.005	 -0.001	  0.010	 23.400	 98.932	  0.386
88362	  0.218	 -0.028	  0.327	  0.305	  0.737	 -9.729	 -0.002	 -0.000	 -0.002	 23.400	 98.932	  0.386
88412	  0.220	 -0.028	  0.326	  0.309	  0.685	 -9.757	 -0.003	  0.002	 -0.002	 23.400	 98.939	 -0.232
88462	  0.218	 -0.032	  0.325	  0.320	  0.728	 -9.747	 -0.004	  0.004	  0.008	 23.400	 98.932	  0.386
88512	  0.218	 -0.028	  0.324	  0.344	  0.735	 -9.729	 -0.004	  0.005	  0.007	 23.400	 98.932	  0.386
88562	  0.218	 -0.029	  0.328	  0.421	  0.679	 -9.699	 -0.003	  0.003	 -0.000	 23.400	 98.943	 -0.583
88612	  0.218	 -0.028	  0.321	  0.295	  0.738	 -9.698	 -0.003	  0.002	  0.006	 23.400	 98.928	  0.739
88662	  0.219	 -0.029	  0.326	  0.352	  0.720	 -9.727	 -0.002	  0.002	 -0.002	 23.400	 98.943	 -0.583
88712	  0.218	 -0.030	  0.328	  0.419	  0.661	 -9.718	 -0.003	  0.001	 -0.003	 23.400	 98.932	  0.386
88762	  0.221	 -0.024	  0.325	  0.250	  0.764	 -9.716	 -0.004	  0.001	  0.011	 23.400	 98.932	  0.386
88812	  0.219	 -0.032	  0.324	  0.297	  0.714	 -9.715	 -0.003	  0.003	 -0.005	 23.400	 98.932	  0.386
88862	  0.217	 -0.030	  0.325	  0.355	  0.677	 -9.735	 -0.004	  0.003	 -0.001	 23.400	 98.943	 -0.583
88912	  0.217	 -0.029	  0.322	  0.291	  0.753	 -9.706	 -0.003	  0.003	  0.013	 23.400	 98.932	  0.386
88962	  0.220	 -0.031	  0.322	  0.301	  0.735	 -9.721	 -0.002	  0.005	 -0.007	 23.400	 98.932	  0.386
89012	  0.217	 -0.027	  0.328	  0.399	  0.679	 -9.726	 -0.003	  0.003	  0.004	 23.400	 98.932	  0.386
89062	  0.217	 -0.028	  0.328	  0.306	  0.728	 -9.685	 -0.005	  0.001	  0.013	 23.400	 98.943	 -0.583
89112	  0.218	 -0.031	  0.321	  0.387	  0.693	 -9.708	 -0.004	  0.003	 -0.014	 23.400	 98.932	  0.386
89162	  0.218	 -0.032	  0.329	  0.325	  0.722	 -9.719	 -0.005	  0.001	  0.001	 23.400	 98.932	  0.386
89212	  0.219	 -0.028	  0.326	  0.329	  0.732	 -9.739	 -0.004	  0.001	  0.007	 23.400	 98.932	  0.386
89262	  0.219	 -0.026	  0.325	  0.304	  0.679	 -9.668	 -0.004	  0.001	 -0.008	 23.400	 98.932	  0.386
89312	  0.219	 -0.025	  0.327	  0.328	  0.745	 -9.740	 -0.004	  0.002	  0.001	 23.400	 98.932	  0.386
89362	  0.220	 -0.029	  0.326	  0.246	  0.731	 -9.712	 -0.004	  0.003	  0.016	 23.400	 98.932	  0.386
89412	  0.218	 -0.030	  0.327	  0.340	  0.722	 -9.739	 -0.004	  0.006	 -0.010	 23.400	 98.943	 -0.583
89462	  0.216	 -0.023	  0.323	  0.383	  0.711	 -9.704	 -0.003	  0.001	  0.005	 23.400	 98.928	  0.739
89512	  0.216	 -0.029	  0.328	  0.326	  0.732	 -9.693	 -0.004	  0.001	  0.012	 23.400	 98.932	  0.386
89562	  0.216	 -0.025	  0.324	  0.354	  0.700	 -9.737	 -0.004	  0.003	 -0.009	 23.400	 98.943	 -0.583
89612	  0.220	 -0.030	  0.324	  0.379	  0.699	 -9.709	 -0.004	  0.000	  0.005	 23.400	 98.943	 -0.583
89662	  0.220	 -0.022	  0.326	  0.312	  0.722	 -9.690	 -0.002	  0.001	  0.008	 23.400	 98.932	  0.386
89712	  0.220	 -0.030	  0.321	  0.305	  0.731	 -9.722	 -0.002	  0.001	 -0.013	 23.400	 98.921	  1.356
89762	  0.217	 -0.026	  0.327	  0.319	  0.697	 -9.742	 -0.004	  0.003	  0.011	 23.400	 98.932	  0.386
89812	  0.220	 -0.031	  0.324	  0.334	  0.724	 -9.702	 -0.004	  0.003	  0.012	 23.400	 98.932	  0.386
89862	  0.219	 -0.029	  0.326	  0.333	  0.713	 -9.711	 -0.003	  0.003	 -0.009	 23.400	 98.928	  0.739
89912	  0.218	 -0.027	  0.326	  0.355	  0.704	 -9.711	 -0.005	  0.003	  0.004	 23.400	 98.917	  1.708
89962	  0.219	 -0.030	  0.327	  0.318	  0.728	 -9.717	 -0.004	  0.002	  0.007	 23.400	 98.943	 -0.583
90012	  0.219	 -0.027	  0.325	  0.314	  0.731	 -9.701	 -0.003	  0.002	 -0.003	 23.400	 98.932	  0.386
90062	  0.218	 -0.031	  0.325	  0.315	  0.709	 -9.732	 -0.004	 -0.000	  0.003	 23.400	 98.932	  0.386
90112	  0.216	 -0.028	  0.322	  0.355	  0.705	 -9.731	 -0.003	  0.001	  0.006	 23.400	 98.943	 -0.583
90162	  0.218	 -0.030	  0.322	  0.306	  0.706	 -9.723	 -0.004	  0.001	 -0.002	 23.400	 98.932	  0.386
90212	  0.218	 -0.029	  0.327	  0.301	  0.709	 -9.740	 -0.002	  0.002	  0.003	 23.500	 98.932	  0.386
90262	  0.218	 -0.030	  0.326	  0.332	  0.694	 -9.743	 -0.004	  0.002	  0.007	 23.400	 98.932	  0.386
90312	  0.216	 -0.028	  0.324	  0.307	  0.704	 -9.728	 -0.004	  0.003	 -0.001	 23.400	 98.932	  0.386
90362	  0.218	 -0.029	  0.325	  0.316	  0.702	 -9.727	 -0.005	  0.002	  0.004	 23.400	 98.932	  0.386
90412	  0.219	 -0.029	  0.321	  0.361	  0.697	 -9.746	 -0.005	  0.003	  0.003	 23.400	 98.928	  0.739
90462	  0.218	 -0.026	  0.327	  0.345	  0.724	 -9.712	 -0.004	  0.002	 -0.003	 23.400	 98.943	 -0.583
90512	  0.221	 -0.029	  0.326	  0.328	  0.745	 -9.703	 -0.005	  0.001	  0.003	 23.400	 98.943	 -0.583
90562	  0.217	 -0.027	  0.326	  0.340	  0.700	 -9.731	 -0.003	  0.001	 -0.002	 23.400	 98.939	 -0.232
90611	  0.217	 -0.029	  0.327	  0.276	  0.749	 -9.712	 -0.002	  0.002	 -0.000	 23.400	 98.932	  0.386
90661	  0.218	 -0.028	  0.328	  0.326	  0.706	 -9.725	 -0.003	  0.002	  0.010	 23.400	 98.943	 -0.583
90711	  0.220	 -0.031	  0.330	  0.328	  0.696	 -9.737	 -0.003	  0.005	  0.001	 23.400	 98.921	  1.356
90761	  0.218	 -0.029	  0.326	  0.309	  0.735	 -9.726	 -0.004	  0.005	  0.002	 23.400	 98.932	  0.386
90811	  0.219	 -0.033	  0.327	  0.370	  0.688	 -9.727	 -0.003	  0.005	  0.007	 23.400	 98.932	  0.386
90861	  0.218	 -0.028	  0.326	  0.335	  0.717	 -9.700	 -0.003	  0.003	 -0.002	 23.400	 98.932	  0.386
90911	  0.218	 -0.029	  0.327	  0.334	  0.717	 -9.713	 -0.004	  0.001	  0.007	 23.400	 98.932	  0.386
90961	  0.218	 -0.028	  0.327	  0.391	  0.691	 -9.717	 -0.003	  0.001	  0.001	 23.400	 98.943	 -0.583
91011	  0.217	 -0.031	  0.327	  0.326	  0.717	 -9.725	 -0.005	  0.001	 -0.008	 23.400	 98.943	 -0.583
91061	  0.217	 -0.022	  0.322	  0.285	  0.751	 -9.736	 -0.005	  0.001	  0.001	 23.400	 98.921	  1.356
91111	  0.218	 -0.030	  0.326	  0.338	  0.684	 -9.728	 -0.005	  0.001	  0.005	 23.400	 98.943	 -0.583
91161	  0.219	 -0.029	  0.324	  0.279	  0.771	 -9.733	 -0.003	  0.004	 -0.004	 23.400	 98.932	  0.386
91211	  0.219	 -0.027	  0.326	  0.301	  0.739	 -9.705	 -0.002	  0.005	  0.005	 23.400	 98.932	  0.386
91261	  0.220	 -0.032	  0.323	  0.329	  0.673	 -9.745	 -0.001	  0.005	  0.011	 23.400	 98.932	  0.386
91311	  0.219	 -0.030	  0.324	  0.321	  0.711	 -9.685	 -0.002	  0.005	  0.002	 23.400	 98.932	  0.386
91361	  0.219	 -0.029	  0.322	  0.355	  0.705	 -9.736	 -0.004	  0.003	  0.003	 23.400	 98.932	  0.386
91411	  0.217	 -0.031	  0.327	  0.381	  0.689	 -9.725	 -0.005	  0.001	  0.004	 23.400	 98.932	  0.386
91461	  0.218	 -0.031	  0.328	  0.317	  0.673	 -9.763	 -0.005	  0.002	 -0.002	 23.400	 98.943	 -0.583
91511	  0.220	 -0.030	  0.327	  0.325	  0.737	 -9.739	 -0.005	  0.001	 -0.003	 23.400	 98.932	  0.386
91561	  0.219	 -0.034	  0.328	  0.313	  0.743	 -9.726	 -0.004	  0.002	  0.005	 23.400	 98.932	  0.386
91611	  0.216	 -0.028	  0.321	  0.264	  0.730	 -9.753	 -0.003	  0.002	 -0.001	 23.400	 98.943	 -0.583
91661	  0.218	 -0.033	  0.327	  0.328	  0.718	 -9.722	 -0.002	  0.003	  0.000	 23.400	 98.932	  0.386
91711	  0.218	 -0.033	  0.322	  0.303	  0.716	 -9.713	 -0.003	  0.002	  0.011	 23.400	 98.943	 -0.583
91762	  0.216	 -0.028	  0.324	  0.349	  0.721	 -9.735	 -0.002	  0.003	  0.001	 23.400	 98.932	  0.386
91811	  0.218	 -0.032	  0.327	  0.354	  0.690	 -9.737	 -0.004	  0.003	  0.001	 23.400	 98.921	  1.356
91861	  0.216	 -0.024	  0.324	  0.357	  0.714	 -9.733	 -0.005	  0.002	 -0.002	 23.400	 98.932	  0.386
91911	  0.221	 -0.025	  0.327	  0.313	  0.735	 -9.717	 -0.006	  0.002	  0.006	 23.400	 98.932	  0.386
91961	  0.219	 -0.029	  0.327	  0.374	  0.717	 -9.723	 -0.004	 -0.000	 -0.004	 23.400	 98.932	  0.386
92012	  0.217	 -0.023	  0.320	  0.290	  0.739	 -9.685	 -0.004	 -0.000	  0.001	 23.500	 98.936	  0.034
92061	  0.220	 -0.025	  0.324	  0.258	  0.758	 -9.716	 -0.003	  0.002	  0.007	 23.400	 98.932	  0.386
92112	  0.217	 -0.030	  0.324	  0.312	  0.687	 -9.700	 -0.001	  0.003	 -0.000	 23.400	 98.932	  0.386
92162	  0.220	 -0.030	  0.325	  0.312	  0.730	 -9.718	 -0.003	  0.003	  0.007	 23.400	 98.932	  0.386
92212	  0.220	 -0.030	  0.320	  0.288	  0.737	 -9.674	 -0.002	  0.004	  0.009	 23.400	 98.921	  1.356
92262	  0.216	 -0.027	  0.321	  0.389	  0.700	 -9.737	 -0.004	  0.004	  0.001	 23.400	 98.943	 -0.583
92312	  0.219	 -0.030	  0.327	  0.365	  0.695	 -9.725	 -0.003	  0.003	  0.002	 23.400	 98.932	  0.386
92362	  0.218	 -0.024	  0.322	  0.351	  0.702	 -9.738	 -0.005	  0.001	  0.006	 23.400	 98.932	  0.386
92412	  0.217	 -0.028	  0.324	  0.354	  0.673	 -9.707	 -0.004	  0.002	 -0.007	 23.400	 98.932	  0.386
92462	  0.220	 -0.031	  0.328	  0.350	  0.717	 -9.702	 -0.005	  0.000	  0.003	 23.400	 98.943	 -0.583
92512	  0.218	 -0.028	  0.325	  0.284	  0.763	 -9.736	 -0.002	  0.001	  0.005	 23.400	 98.932	  0.386
92562	  0.217	 -0.029	  0.326	  0.314	  0.735	 -9.707	 -0.003	  0.002	 -0.004	 23.400	 98.932	  0.386
92612	  0.217	 -0.031	  0.324	  0.312	  0.714	 -9.719	 -0.002	  0.003	  0.006	 23.400	 98.932	  0.386
92662	  0.215	 -0.035	  0.330	  0.316	  0.735	 -9.730	 -0.003	  0.005	  0.008	 23.400	 98.932	  0.386
92712	  0.214	 -0.029	  0.328	  0.351	  0.685	 -9.715	 -0.002	  0.004	  0.002	 23.400	 98.932	  0.386
92762	  0.216	 -0.029	  0.328	  0.361	  0.694	 -9.738	 -0.004	  0.002	  0.003	 23.400	 98.921	  1.356
92812	  0.213	 -0.029	  0.328	  0.335	  0.719	 -9.722	 -0.003	  0.002	  0.004	 23.400	 98.943	 -0.583
92862	  0.213	 -0.030	  0.322	  0.380	  0.675	 -9.732	 -0.006	  0.002	  0.001	 23.400	 98.932	  0.386
92912	  0.205	 -0.031	  0.324	  0.331	  0.710	 -9.710	 -0.004	 -0.001	 -0.004	 23.400	 98.932	  0.386
92962	  0.196	 -0.035	  0.319	  0.286	  0.722	 -9.732	 -0.003	  0.000	  0.006	 23.400	 98.932	  0.386
93012	  0.196	 -0.037	  0.296	  0.328	  0.704	 -9.716	 -0.004	  0.002	 -0.000	 23.400	 98.932	  0.386
93062	  0.224	 -0.042	  0.293	  0.287	  0.747	 -9.725	 -0.003	  0.003	  0.001	 23.500	 98.932	  0.386
93112	  0.239	 -0.042	  0.318	  0.320	  0.750	 -9.704	 -0.003	  0.004	  0.011	 23.400	 98.932	  0.386
93162	  0.236	 -0.032	  0.330	  0.348	  0.696	 -9.715	 -0.002	  0.005	  0.000	 23.400	 98.943	 -0.583
93212	  0.230	 -0.036	  0.332	  0.362	  0.713	 -9.726	 -0.003	  0.004	  0.004	 23.400	 98.921	  1.356
93262	  0.227	 -0.031	  0.332	  0.375	  0.672	 -9.731	 -0.003	  0.002	  0.007	 23.400	 98.932	  0.386
93312	  0.223	 -0.029	  0.334	  0.378	  0.683	 -9.718	 -0.004	  0.002	 -0.003	 23.500	 98.932	  0.386
93362	  0.221	 -0.031	  0.327	  0.323	  0.708	 -9.689	 -0.005	  0.002	  0.002	 23.400	 98.932	  0.386
93412	  0.221	 -0.028	  0.331	  0.342	  0.716	 -9.711	 -0.006	  0.001	  0.001	 23.400	 98.932	  0.386
