Time	 MagX	 MagY	 MagZ	 AccelX	 AccelY	 AccelZ	 Yaw	 Pitch	 Roll	 Temperature	 Pressure	 Altitude
5274	  0.407	  0.342	  0.468	  0.076	  0.531	 -9.745	 -0.003	  0.002	  0.001	 32.800	 99.119	 -99999.000
5321	  0.407	  0.341	  0.470	  0.131	  0.534	 -9.762	 -0.003	  0.002	  0.001	 32.800	 99.130	 -99999.000
5371	  0.407	  0.341	  0.467	  0.120	  0.515	 -9.747	 -0.003	  0.003	  0.001	 32.800	 99.119	 -99999.000
5421	  0.406	  0.339	  0.469	  0.094	  0.541	 -9.755	 -0.003	  0.002	 -0.000	 32.800	 99.119	 -99999.000
5471	  0.405	  0.340	  0.471	  0.146	  0.521	 -9.734	 -0.004	  0.002	  0.001	 32.800	 99.119	 -99999.000
5521	  0.406	  0.340	  0.468	  0.106	  0.502	 -9.772	 -0.003	  0.003	  0.001	 32.800	 99.119	 -99999.000
5571	  0.408	  0.341	  0.469	  0.118	  0.499	 -9.747	 -0.003	  0.004	 -0.000	 32.800	 99.119	 -99999.000
5621	  0.405	  0.341	  0.469	  0.122	  0.523	 -9.753	 -0.003	  0.003	  0.000	 32.800	 99.119	 -99999.000
5671	  0.410	  0.339	  0.468	  0.112	  0.501	 -9.727	 -0.003	  0.002	  0.000	 32.800	 99.119	 -99999.000
5721	  0.406	  0.338	  0.465	  0.110	  0.518	 -9.740	 -0.004	  0.003	  0.000	 32.900	 99.123	 -99999.000
5771	  0.409	  0.342	  0.471	  0.113	  0.511	 -9.718	 -0.003	  0.003	  0.001	 32.900	 99.112	 -99999.000
5821	  0.408	  0.335	  0.467	  0.121	  0.516	 -9.766	 -0.004	  0.003	  0.000	 32.800	 99.119	 -99999.000
5871	  0.407	  0.336	  0.470	  0.101	  0.506	 -9.732	 -0.002	  0.003	  0.001	 32.800	 99.107	 -99999.000
5921	  0.406	  0.338	  0.471	  0.127	  0.508	 -9.726	 -0.004	  0.004	  0.001	 32.800	 99.107	 -99999.000
5971	  0.409	  0.341	  0.468	  0.120	  0.512	 -9.736	 -0.004	  0.003	 -0.000	 32.900	 99.112	 -99999.000
6021	  0.409	  0.342	  0.470	  0.117	  0.532	 -9.742	 -0.004	  0.003	 -0.000	 32.800	 99.107	 -99999.000
6071	  0.407	  0.337	  0.468	  0.116	  0.512	 -9.740	 -0.004	  0.003	  0.000	 32.800	 99.107	 -99999.000
6121	  0.405	  0.341	  0.468	  0.104	  0.516	 -9.741	 -0.004	  0.004	  0.001	 32.800	 99.119	 -99999.000
6171	  0.407	  0.340	  0.467	  0.113	  0.509	 -9.724	 -0.004	  0.002	 -0.000	 32.800	 99.107	 -99999.000
6221	  0.408	  0.340	  0.463	  0.123	  0.508	 -9.716	 -0.004	  0.001	  0.000	 32.900	 99.123	 -99999.000
6271	  0.408	  0.342	  0.469	  0.121	  0.506	 -9.748	 -0.004	  0.002	  0.001	 32.800	 99.119	 -99999.000
6321	  0.408	  0.339	  0.463	  0.104	  0.513	 -9.755	 -0.003	  0.002	  0.000	 32.800	 99.119	 -99999.000
6371	  0.406	  0.338	  0.471	  0.118	  0.492	 -9.732	 -0.004	  0.002	 -0.000	 32.800	 99.119	 -99999.000
6421	  0.408	  0.337	  0.468	  0.096	  0.525	 -9.796	 -0.004	  0.002	  0.001	 32.900	 99.112	 -99999.000
6472	  0.406	  0.343	  0.469	  0.090	  0.523	 -9.735	 -0.002	  0.002	 -0.001	 32.800	 99.119	 -99999.000
6521	  0.405	  0.338	  0.471	  0.104	  0.521	 -9.685	 -0.005	  0.003	 -0.001	 32.800	 99.119	 -99999.000
6571	  0.409	  0.342	  0.467	  0.117	  0.501	 -9.739	 -0.003	  0.003	  0.001	 32.900	 99.123	 -99999.000
6621	  0.406	  0.339	  0.465	  0.123	  0.499	 -9.765	 -0.004	  0.003	  0.001	 32.800	 99.107	 -99999.000
6671	  0.408	  0.338	  0.465	  0.120	  0.524	 -9.760	 -0.003	  0.001	 -0.000	 32.800	 99.107	 -99999.000
6721	  0.406	  0.337	  0.470	  0.114	  0.526	 -9.740	 -0.003	  0.002	  0.000	 32.900	 99.123	 -99999.000
6771	  0.407	  0.338	  0.467	  0.124	  0.508	 -9.734	 -0.004	  0.004	  0.001	 32.900	 99.123	 -99999.000
6821	  0.405	  0.338	  0.468	  0.122	  0.541	 -9.702	 -0.004	  0.002	  0.001	 32.900	 99.112	 -99999.000
6871	  0.408	  0.337	  0.469	  0.141	  0.513	 -9.752	 -0.002	  0.004	  0.000	 32.800	 99.107	 -99999.000
6921	  0.404	  0.340	  0.469	  0.112	  0.512	 -9.761	 -0.003	  0.002	  0.002	 32.900	 99.123	 -99999.000
6971	  0.405	  0.340	  0.471	  0.103	  0.536	 -9.763	 -0.004	  0.002	 -0.000	 32.800	 99.107	 -99999.000
7021	  0.405	  0.336	  0.465	  0.096	  0.506	 -9.744	 -0.004	  0.003	 -0.000	 32.800	 99.119	 -99999.000
7071	  0.407	  0.340	  0.470	  0.122	  0.510	 -9.731	 -0.004	  0.003	  0.000	 32.800	 99.119	 -99999.000
7121	  0.408	  0.343	  0.470	  0.138	  0.516	 -9.755	 -0.003	  0.003	  0.001	 32.900	 99.123	 -99999.000
7171	  0.407	  0.342	  0.469	  0.112	  0.527	 -9.748	 -0.004	  0.003	  0.000	 32.800	 99.119	 -99999.000
7221	  0.408	  0.338	  0.468	  0.140	  0.519	 -9.745	 -0.002	  0.003	  0.002	 32.800	 99.119	 -99999.000
7271	  0.407	  0.337	  0.471	  0.118	  0.511	 -9.737	 -0.003	  0.001	 -0.001	 32.800	 99.119	 -99999.000
7321	  0.405	  0.339	  0.467	  0.116	  0.512	 -9.740	 -0.003	  0.003	 -0.000	 32.800	 99.119	 -99999.000
7371	  0.406	  0.338	  0.467	  0.121	  0.516	 -9.747	 -0.003	  0.003	  0.000	 32.900	 99.112	 -99999.000
7421	  0.408	  0.340	  0.471	  0.077	  0.503	 -9.708	 -0.003	  0.003	  0.001	 32.900	 99.123	 -99999.000
7471	  0.406	  0.343	  0.469	  0.127	  0.508	 -9.752	 -0.004	  0.003	  0.001	 32.800	 99.107	 -99999.000
7521	  0.408	  0.342	  0.470	  0.121	  0.521	 -9.739	 -0.003	  0.003	 -0.000	 32.800	 99.107	 -99999.000
7571	  0.409	  0.339	  0.468	  0.139	  0.528	 -9.720	 -0.003	  0.002	 -0.000	 32.900	 99.123	 -99999.000
7621	  0.408	  0.341	  0.471	  0.124	  0.505	 -9.763	 -0.005	  0.003	  0.001	 32.900	 99.123	 -99999.000
7671	  0.407	  0.337	  0.470	  0.136	  0.528	 -9.710	 -0.003	  0.002	 -0.001	 32.900	 99.112	 -99999.000
7721	  0.406	  0.337	  0.470	  0.115	  0.499	 -9.757	 -0.004	  0.002	 -0.000	 32.800	 99.107	 -99999.000
7771	  0.405	  0.339	  0.467	  0.120	  0.525	 -9.752	 -0.004	  0.003	  0.001	 32.900	 99.123	 -99999.000
7821	  0.405	  0.338	  0.467	  0.116	  0.531	 -9.736	 -0.004	  0.002	  0.000	 32.900	 99.112	 -99999.000
7871	  0.406	  0.337	  0.471	  0.120	  0.520	 -9.744	 -0.002	  0.004	  0.001	 32.900	 99.123	 -99999.000
7921	  0.406	  0.344	  0.467	  0.116	  0.507	 -9.706	 -0.002	  0.002	 -0.000	 32.800	 99.119	 -99999.000
7971	  0.407	  0.340	  0.470	  0.150	  0.505	 -9.779	 -0.005	  0.001	  0.001	 32.900	 99.123	 -99999.000
8021	  0.406	  0.341	  0.462	  0.128	  0.518	 -9.740	 -0.004	  0.003	  0.002	 32.800	 99.119	 -99999.000
8071	  0.407	  0.340	  0.468	  0.115	  0.524	 -9.758	 -0.003	  0.003	  0.001	 32.900	 99.123	 -99999.000
8121	  0.406	  0.337	  0.465	  0.119	  0.508	 -9.758	 -0.004	  0.003	  0.001	 32.800	 99.130	 -99999.000
8171	  0.409	  0.342	  0.469	  0.126	  0.520	 -9.728	 -0.003	  0.002	 -0.000	 32.900	 99.112	 -99999.000
8221	  0.407	  0.341	  0.469	  0.107	  0.516	 -9.757	 -0.002	  0.002	  0.001	 32.900	 99.112	 -99999.000
8271	  0.406	  0.338	  0.471	  0.142	  0.506	 -9.776	 -0.004	  0.001	  0.001	 32.800	 99.107	 -99999.000
8321	  0.409	  0.337	  0.469	  0.141	  0.528	 -9.717	 -0.005	  0.003	  0.001	 32.900	 99.112	 -99999.000
8371	  0.407	  0.338	  0.467	  0.119	  0.494	 -9.739	 -0.004	  0.002	 -0.001	 32.800	 99.119	 -99999.000
8421	  0.405	  0.339	  0.470	  0.117	  0.513	 -9.755	 -0.004	  0.003	  0.000	 32.800	 99.119	 -99999.000
8471	  0.406	  0.339	  0.468	  0.123	  0.502	 -9.752	 -0.003	  0.001	  0.001	 32.900	 99.112	 -99999.000
8521	  0.407	  0.339	  0.467	  0.112	  0.528	 -9.757	 -0.003	  0.002	  0.001	 32.900	 99.123	 -99999.000
8571	  0.406	  0.339	  0.462	  0.105	  0.543	 -9.718	 -0.002	  0.003	  0.000	 32.800	 99.119	 -99999.000
8621	  0.406	  0.338	  0.470	  0.123	  0.505	 -9.752	 -0.004	  0.002	  0.001	 32.800	 99.107	 -99999.000
8671	  0.407	  0.338	  0.469	  0.100	  0.518	 -9.717	 -0.004	  0.005	 -0.000	 32.900	 99.112	 -99999.000
8721	  0.406	  0.340	  0.472	  0.106	  0.525	 -9.779	 -0.003	  0.001	  0.000	 32.900	 99.123	 -99999.000
8771	  0.407	  0.343	  0.469	  0.128	  0.533	 -9.744	 -0.003	  0.003	  0.001	 32.900	 99.123	 -99999.000
8821	  0.404	  0.344	  0.468	  0.096	  0.502	 -9.722	 -0.003	  0.002	 -0.000	 32.900	 99.112	 -99999.000
8871	  0.406	  0.339	  0.464	  0.127	  0.520	 -9.739	 -0.003	  0.002	 -0.000	 32.900	 99.112	 -99999.000
8921	  0.407	  0.343	  0.469	  0.100	  0.508	 -9.744	 -0.002	  0.003	 -0.001	 32.900	 99.123	 -99999.000
8971	  0.409	  0.340	  0.471	  0.119	  0.521	 -9.751	 -0.002	  0.002	  0.001	 32.900	 99.123	 -99999.000
9021	  0.405	  0.340	  0.469	  0.122	  0.505	 -9.772	 -0.003	  0.003	  0.001	 32.900	 99.112	 -99999.000
9071	  0.407	  0.336	  0.469	  0.127	  0.532	 -9.772	 -0.002	  0.001	  0.000	 32.900	 99.112	 -99999.000
9121	  0.407	  0.341	  0.470	  0.103	  0.505	 -9.709	 -0.004	  0.004	  0.002	 32.800	 99.119	 -99999.000
9171	  0.407	  0.337	  0.470	  0.133	  0.536	 -9.707	 -0.003	  0.004	  0.001	 32.900	 99.134	 -99999.000
9221	  0.405	  0.343	  0.470	  0.114	  0.522	 -9.752	 -0.004	  0.003	 -0.000	 32.900	 99.134	 -99999.000
9271	  0.408	  0.339	  0.465	  0.101	  0.506	 -9.714	 -0.004	  0.003	  0.000	 32.900	 99.123	 -99999.000
9321	  0.406	  0.340	  0.470	  0.111	  0.514	 -9.750	 -0.005	  0.002	  0.001	 32.800	 99.119	 -99999.000
9371	  0.407	  0.345	  0.467	  0.108	  0.517	 -9.755	 -0.004	  0.003	 -0.000	 32.900	 99.123	 -99999.000
9421	  0.407	  0.336	  0.469	  0.130	  0.525	 -9.756	 -0.004	  0.003	 -0.000	 32.900	 99.112	 -99999.000
9471	  0.408	  0.340	  0.470	  0.100	  0.525	 -9.765	 -0.004	  0.003	  0.000	 32.900	 99.112	 -99999.000
9521	  0.408	  0.340	  0.469	  0.139	  0.526	 -9.747	 -0.003	  0.002	  0.000	 32.900	 99.123	 -99999.000
9571	  0.407	  0.344	  0.468	  0.138	  0.519	 -9.740	 -0.003	  0.003	  0.001	 32.900	 99.112	 -99999.000
9621	  0.407	  0.337	  0.467	  0.150	  0.498	 -9.710	 -0.004	  0.004	  0.001	 32.900	 99.112	 -99999.000
9671	  0.407	  0.337	  0.461	  0.100	  0.517	 -9.731	 -0.003	  0.002	  0.001	 32.800	 99.107	 -99999.000
9721	  0.406	  0.338	  0.467	  0.120	  0.499	 -9.768	 -0.004	  0.003	 -0.000	 32.900	 99.123	 -99999.000
9771	  0.406	  0.343	  0.470	  0.107	  0.475	 -9.749	 -0.004	  0.002	 -0.000	 32.900	 99.112	 -99999.000
9822	  0.408	  0.343	  0.467	  0.115	  0.529	 -9.758	 -0.004	  0.004	 -0.000	 32.800	 99.119	 -99999.000
9871	  0.408	  0.341	  0.467	  0.109	  0.505	 -9.753	 -0.003	  0.003	  0.001	 32.900	 99.123	 -99999.000
9921	  0.406	  0.343	  0.467	  0.112	  0.524	 -9.751	 -0.004	  0.002	  0.001	 32.900	 99.123	 -99999.000
9971	  0.406	  0.343	  0.468	  0.128	  0.507	 -9.774	 -0.004	  0.003	  0.001	 32.900	 99.112	 -99999.000
10021	  0.408	  0.338	  0.464	  0.109	  0.513	 -9.761	 -0.002	  0.005	  0.001	 32.900	 99.112	 -99999.000
10071	  0.406	  0.338	  0.464	  0.124	  0.528	 -9.733	 -0.003	  0.002	  0.001	 32.900	 99.112	 -99999.000
10121	  0.407	  0.338	  0.462	  0.107	  0.517	 -9.772	 -0.004	  0.003	  0.001	 32.900	 99.112	 -99999.000
10171	  0.406	  0.336	  0.471	  0.129	  0.502	 -9.746	 -0.003	  0.003	  0.000	 32.900	 99.112	 -99999.000
10221	  0.409	  0.342	  0.468	  0.120	  0.522	 -9.735	 -0.004	  0.002	  0.000	 32.900	 99.112	 -99999.000
10271	  0.405	  0.341	  0.468	  0.113	  0.501	 -9.776	 -0.004	  0.003	  0.000	 32.900	 99.123	 -99999.000
10321	  0.407	  0.342	  0.467	  0.132	  0.509	 -9.801	 -0.002	  0.002	  0.001	 32.900	 99.134	 -99999.000
10371	  0.408	  0.341	  0.472	  0.117	  0.530	 -9.730	 -0.003	  0.004	  0.001	 32.900	 99.112	 -99999.000
10421	  0.405	  0.336	  0.468	  0.139	  0.523	 -9.752	 -0.004	  0.001	 -0.000	 32.900	 99.123	 -99999.000
10472	  0.407	  0.338	  0.465	  0.107	  0.507	 -9.718	 -0.003	  0.003	  0.001	 32.900	 99.123	 -99999.000
10521	  0.409	  0.340	  0.472	  0.131	  0.533	 -9.717	 -0.004	  0.002	 -0.000	 32.800	 99.107	 -99999.000
10572	  0.407	  0.340	  0.469	  0.123	  0.520	 -9.737	 -0.003	  0.003	  0.001	 32.900	 99.123	 -99999.000
10621	  0.406	  0.339	  0.468	  0.111	  0.515	 -9.783	 -0.004	  0.002	  0.000	 32.900	 99.123	 -99999.000
10672	  0.407	  0.344	  0.467	  0.135	  0.557	 -9.737	 -0.002	  0.003	  0.001	 32.900	 99.112	 -99999.000
10721	  0.407	  0.337	  0.467	  0.085	  0.526	 -9.770	 -0.004	 -0.000	 -0.000	 32.900	 99.112	 -99999.000
10772	  0.408	  0.337	  0.464	  0.119	  0.511	 -9.718	 -0.002	  0.002	  0.001	 32.900	 99.112	 -99999.000
10822	  0.407	  0.336	  0.469	  0.122	  0.510	 -9.727	 -0.004	  0.004	  0.001	 32.800	 99.107	 -99999.000
10872	  0.407	  0.340	  0.469	  0.114	  0.494	 -9.733	 -0.004	  0.002	  0.000	 32.900	 99.112	 -99999.000
10922	  0.406	  0.340	  0.469	  0.121	  0.544	 -9.751	 -0.002	  0.003	  0.001	 32.900	 99.123	 -99999.000
10972	  0.406	  0.338	  0.471	  0.112	  0.520	 -9.714	 -0.003	  0.003	  0.000	 32.900	 99.123	 -99999.000
11022	  0.404	  0.339	  0.469	  0.128	  0.489	 -9.758	 -0.003	  0.001	  0.001	 32.900	 99.123	 -99999.000
11072	  0.408	  0.339	  0.469	  0.132	  0.523	 -9.739	 -0.002	  0.003	  0.000	 32.900	 99.112	 -99999.000
11122	  0.406	  0.340	  0.467	  0.119	  0.509	 -9.722	 -0.003	  0.003	  0.001	 32.900	 99.112	 -99999.000
11172	  0.407	  0.341	  0.465	  0.141	  0.500	 -9.756	 -0.003	  0.002	  0.001	 32.900	 99.123	 -99999.000
11222	  0.409	  0.340	  0.467	  0.088	  0.512	 -9.753	 -0.003	  0.002	  0.001	 32.900	 99.112	 -99999.000
73074	  0.416	  0.343	  0.470	  0.111	  0.511	 -9.701	 -0.006	  0.003	 -0.000	 33.000	 99.107	  0.911
73122	  0.416	  0.345	  0.467	  0.118	  0.504	 -9.723	 -0.005	  0.003	  0.002	 33.000	 99.114	  0.276
73172	  0.416	  0.344	  0.467	  0.111	  0.526	 -9.753	 -0.003	  0.002	 -0.000	 33.000	 99.129	 -1.086
73222	  0.417	  0.342	  0.470	  0.115	  0.515	 -9.732	 -0.003	  0.003	 -0.000	 33.000	 99.118	 -0.087
73272	  0.413	  0.346	  0.464	  0.093	  0.491	 -9.744	 -0.004	  0.003	  0.002	 33.000	 99.114	  0.276
73322	  0.415	  0.346	  0.466	  0.115	  0.514	 -9.730	 -0.004	  0.002	  0.000	 33.000	 99.118	 -0.087
73372	  0.415	  0.344	  0.464	  0.097	  0.523	 -9.720	 -0.005	  0.003	  0.000	 33.000	 99.118	 -0.087
73422	  0.416	  0.344	  0.471	  0.091	  0.523	 -9.723	 -0.003	  0.002	 -0.000	 33.000	 99.118	 -0.087
73472	  0.418	  0.343	  0.471	  0.121	  0.518	 -9.765	 -0.004	  0.001	  0.001	 33.000	 99.129	 -1.086
73522	  0.416	  0.339	  0.465	  0.112	  0.516	 -9.780	 -0.003	  0.002	  0.002	 33.000	 99.118	 -0.087
73572	  0.414	  0.343	  0.470	  0.125	  0.519	 -9.761	 -0.004	  0.003	 -0.000	 33.000	 99.107	  0.911
73622	  0.414	  0.343	  0.468	  0.123	  0.540	 -9.696	 -0.004	  0.004	  0.000	 33.000	 99.118	 -0.087
73672	  0.416	  0.340	  0.470	  0.104	  0.497	 -9.781	 -0.003	  0.003	  0.001	 33.000	 99.129	 -1.086
73722	  0.416	  0.346	  0.468	  0.100	  0.503	 -9.704	 -0.002	  0.003	 -0.001	 33.000	 99.118	 -0.087
73772	  0.419	  0.344	  0.470	  0.095	  0.519	 -9.760	 -0.004	  0.003	  0.000	 33.000	 99.129	 -1.086
73822	  0.418	  0.346	  0.470	  0.097	  0.511	 -9.736	 -0.003	  0.003	  0.001	 33.000	 99.118	 -0.087
73872	  0.419	  0.341	  0.468	  0.111	  0.514	 -9.749	 -0.004	  0.003	  0.001	 33.000	 99.118	 -0.087
73922	  0.417	  0.344	  0.465	  0.108	  0.511	 -9.777	 -0.003	  0.003	  0.001	 33.000	 99.118	 -0.087
73972	  0.419	  0.340	  0.471	  0.112	  0.524	 -9.725	 -0.004	  0.001	  0.001	 33.000	 99.118	 -0.087
74022	  0.420	  0.347	  0.468	  0.105	  0.515	 -9.753	 -0.004	  0.004	 -0.000	 33.000	 99.129	 -1.086
74072	  0.417	  0.342	  0.470	  0.111	  0.536	 -9.728	 -0.003	  0.004	  0.001	 33.000	 99.118	 -0.087
74122	  0.419	  0.340	  0.470	  0.103	  0.525	 -9.770	 -0.003	  0.002	  0.001	 33.000	 99.129	 -1.086
74172	  0.419	  0.342	  0.472	  0.127	  0.502	 -9.726	 -0.005	  0.003	 -0.000	 33.000	 99.129	 -1.086
74222	  0.418	  0.340	  0.471	  0.084	  0.514	 -9.739	 -0.003	  0.002	  0.000	 33.000	 99.118	 -0.087
74272	  0.420	  0.342	  0.469	  0.115	  0.532	 -9.776	 -0.003	  0.002	 -0.000	 33.000	 99.118	 -0.087
74322	  0.419	  0.340	  0.467	  0.122	  0.511	 -9.743	 -0.003	  0.002	  0.001	 33.000	 99.107	  0.911
74372	  0.422	  0.344	  0.472	  0.110	  0.506	 -9.735	 -0.004	  0.002	  0.000	 33.000	 99.107	  0.911
74422	  0.417	  0.341	  0.467	  0.107	  0.513	 -9.726	 -0.005	  0.002	  0.000	 33.000	 99.118	 -0.087
74472	  0.414	  0.342	  0.468	  0.121	  0.527	 -9.741	 -0.004	  0.002	  0.000	 33.000	 99.129	 -1.086
74522	  0.418	  0.343	  0.468	  0.088	  0.528	 -9.775	 -0.003	  0.003	  0.001	 33.000	 99.129	 -1.086
74572	  0.418	  0.345	  0.470	  0.126	  0.520	 -9.734	 -0.003	  0.003	 -0.000	 33.000	 99.118	 -0.087
74622	  0.417	  0.340	  0.470	  0.122	  0.513	 -9.762	 -0.003	  0.002	  0.001	 33.000	 99.129	 -1.086
74672	  0.416	  0.343	  0.466	  0.101	  0.522	 -9.778	 -0.003	  0.002	  0.001	 33.000	 99.118	 -0.087
74722	  0.415	  0.340	  0.468	  0.119	  0.520	 -9.759	 -0.003	  0.002	  0.001	 33.000	 99.118	 -0.087
74772	  0.416	  0.340	  0.470	  0.128	  0.520	 -9.784	 -0.003	  0.003	  0.000	 33.000	 99.118	 -0.087
74822	  0.415	  0.341	  0.470	  0.123	  0.526	 -9.744	 -0.003	  0.002	  0.000	 33.000	 99.118	 -0.087
74872	  0.419	  0.340	  0.471	  0.105	  0.525	 -9.769	 -0.003	  0.002	  0.001	 33.000	 99.118	 -0.087
74923	  0.417	  0.340	  0.468	  0.136	  0.515	 -9.741	 -0.003	  0.002	  0.000	 33.000	 99.118	 -0.087
74972	  0.416	  0.343	  0.470	  0.110	  0.517	 -9.744	 -0.002	  0.002	  0.000	 33.000	 99.118	 -0.087
75022	  0.417	  0.343	  0.471	  0.090	  0.510	 -9.740	 -0.004	  0.003	 -0.000	 33.000	 99.118	 -0.087
75072	  0.419	  0.344	  0.472	  0.117	  0.504	 -9.773	 -0.003	  0.002	 -0.001	 33.000	 99.118	 -0.087
75122	  0.416	  0.342	  0.467	  0.119	  0.516	 -9.704	 -0.004	  0.003	  0.001	 33.000	 99.118	 -0.087
75172	  0.415	  0.341	  0.470	  0.118	  0.499	 -9.748	 -0.004	  0.002	  0.001	 33.000	 99.118	 -0.087
75222	  0.415	  0.342	  0.468	  0.098	  0.503	 -9.742	 -0.005	  0.004	  0.001	 33.000	 99.118	 -0.087
75272	  0.417	  0.341	  0.470	  0.131	  0.531	 -9.751	 -0.003	  0.002	  0.001	 33.000	 99.118	 -0.087
75322	  0.417	  0.343	  0.468	  0.093	  0.516	 -9.748	 -0.004	  0.001	 -0.001	 33.000	 99.118	 -0.087
75372	  0.418	  0.341	  0.468	  0.119	  0.497	 -9.734	 -0.004	  0.003	 -0.001	 33.000	 99.114	  0.276
75422	  0.415	  0.341	  0.472	  0.088	  0.515	 -9.758	 -0.003	  0.004	  0.001	 33.000	 99.118	 -0.087
75473	  0.415	  0.341	  0.466	  0.114	  0.507	 -9.693	 -0.004	  0.002	 -0.000	 33.000	 99.107	  0.911
75522	  0.417	  0.339	  0.468	  0.107	  0.508	 -9.724	 -0.004	  0.002	  0.001	 33.000	 99.111	  0.549
75573	  0.419	  0.341	  0.470	  0.106	  0.523	 -9.764	 -0.003	  0.003	 -0.000	 33.000	 99.118	 -0.087
75622	  0.418	  0.342	  0.470	  0.117	  0.511	 -9.750	 -0.003	  0.001	  0.001	 33.000	 99.118	 -0.087
75672	  0.417	  0.342	  0.467	  0.104	  0.503	 -9.761	 -0.003	  0.004	 -0.000	 33.000	 99.118	 -0.087
75722	  0.418	  0.341	  0.470	  0.112	  0.516	 -9.729	 -0.004	  0.003	  0.001	 33.000	 99.118	 -0.087
75773	  0.416	  0.341	  0.470	  0.090	  0.517	 -9.719	 -0.003	  0.003	  0.000	 33.000	 99.118	 -0.087
75822	  0.419	  0.338	  0.471	  0.100	  0.530	 -9.741	 -0.004	  0.002	  0.000	 33.000	 99.118	 -0.087
75872	  0.419	  0.341	  0.468	  0.100	  0.510	 -9.756	 -0.003	  0.003	  0.001	 33.000	 99.118	 -0.087
75922	  0.415	  0.346	  0.471	  0.101	  0.538	 -9.776	 -0.003	  0.004	  0.001	 33.000	 99.118	 -0.087
75972	  0.417	  0.347	  0.467	  0.066	  0.519	 -9.811	  0.001	  0.061	  0.007	 33.000	 99.107	  0.911
76023	  0.413	  0.351	  0.474	  0.279	  0.463	 -9.631	  0.004	  0.090	  0.002	 33.000	 99.118	 -0.087
76073	  0.415	  0.340	  0.474	  0.139	  0.513	 -9.805	 -0.006	 -0.024	  0.003	 33.000	 99.118	 -0.087
76123	  0.412	  0.343	  0.468	  0.116	  0.530	 -9.783	 -0.006	 -0.020	  0.003	 33.000	 99.107	  0.911
76173	  0.413	  0.344	  0.469	  0.074	  0.536	 -9.818	  0.006	  0.070	  0.005	 33.000	 99.107	  0.911
76223	  0.411	  0.342	  0.469	  0.206	  0.657	 -9.777	  0.017	  0.173	  0.053	 33.000	 99.118	 -0.087
76273	  0.407	  0.339	  0.475	  0.454	  0.496	 -9.668	  0.008	  0.139	  0.107	 33.000	 99.118	 -0.087
76323	  0.409	  0.338	  0.475	  0.339	  0.503	 -9.728	 -0.005	  0.015	  0.043	 33.000	 99.118	 -0.087
76373	  0.409	  0.336	  0.477	  0.424	  0.513	 -9.842	 -0.010	  0.033	  0.160	 33.000	 99.118	 -0.087
76423	  0.412	  0.338	  0.476	  0.758	  0.218	 -9.666	 -0.007	  0.037	  0.156	 33.000	 99.107	  0.911
76473	  0.409	  0.334	  0.476	  0.278	  0.496	 -9.829	 -0.004	  0.008	 -0.002	 33.000	 99.118	 -0.087
76523	  0.410	  0.332	  0.478	  0.401	  0.507	 -9.745	  0.009	  0.087	  0.057	 33.000	 99.118	 -0.087
76572	  0.407	  0.336	  0.481	  0.175	  1.138	 -9.848	  0.012	  0.111	 -0.033	 33.000	 99.118	 -0.087
76622	  0.406	  0.332	  0.484	  0.725	  0.569	 -9.770	  0.016	  0.218	  0.259	 33.000	 99.118	 -0.087
76672	  0.409	  0.328	  0.483	  0.605	  0.370	 -9.794	  0.006	  0.021	  0.181	 33.000	 99.118	 -0.087
76722	  0.411	  0.319	  0.481	  0.540	  0.563	 -9.781	 -0.048	 -0.028	  0.216	 33.000	 99.107	  0.911
76772	  0.413	  0.317	  0.481	  0.525	  0.435	 -9.855	 -0.014	 -0.016	  0.005	 33.000	 99.118	 -0.087
76823	  0.414	  0.319	  0.487	  0.656	  0.528	 -9.721	  0.002	  0.008	  0.042	 33.000	 99.122	 -0.451
76873	  0.413	  0.317	  0.482	  0.662	  0.396	 -9.743	 -0.011	  0.010	  0.018	 33.000	 99.118	 -0.087
76923	  0.413	  0.316	  0.483	  0.502	  0.580	 -9.839	 -0.032	  0.022	  0.109	 33.000	 99.118	 -0.087
76973	  0.414	  0.312	  0.482	  0.938	  0.010	 -9.698	 -0.036	 -0.012	  0.109	 33.000	 99.118	 -0.087
77023	  0.414	  0.315	  0.474	  0.525	  0.480	 -9.780	 -0.017	 -0.145	 -0.006	 33.000	 99.107	  0.911
77073	  0.421	  0.314	  0.477	  0.048	  0.257	 -9.539	  0.267	 -0.403	  0.116	 33.000	 99.118	 -0.087
77123	  0.443	  0.329	  0.448	 -0.178	  0.683	 -8.488	  0.809	 -1.372	  0.103	 33.000	 99.118	 -0.087
77173	  0.486	  0.359	  0.389	  0.129	 -0.245	 -10.462	  1.460	 -2.100	 -0.108	 33.000	 99.118	 -0.087
77223	  0.520	  0.383	  0.322	 -2.156	 -0.527	 -10.428	  1.029	 -1.384	 -0.194	 33.000	 99.107	  0.911
77273	  0.525	  0.398	  0.304	 -2.057	 -0.915	 -10.870	  0.141	 -0.139	 -0.218	 33.000	 99.129	 -1.086
77323	  0.520	  0.404	  0.305	 -2.635	 -1.286	 -7.846	 -0.148	 -0.225	  0.034	 33.000	 99.111	  0.549
77373	  0.528	  0.402	  0.300	 -1.701	 -0.953	 -9.431	 -0.068	 -0.130	  0.190	 33.000	 99.118	 -0.087
77423	  0.530	  0.393	  0.302	 -2.268	 -1.399	 -9.675	  0.001	  0.316	  0.015	 33.000	 99.129	 -1.086
77473	  0.525	  0.391	  0.309	 -1.615	 -1.061	 -9.783	 -0.123	  0.477	  0.028	 33.000	 99.129	 -1.086
77523	  0.513	  0.387	  0.324	 -1.561	 -0.981	 -9.450	 -0.219	  0.651	 -0.008	 33.000	 99.107	  0.911
77573	  0.503	  0.395	  0.340	 -1.394	 -1.026	 -9.503	 -0.133	  0.426	 -0.029	 33.000	 99.118	 -0.087
77623	  0.496	  0.380	  0.349	 -1.178	 -0.967	 -9.797	 -0.113	  0.147	 -0.061	 33.000	 99.107	  0.911
77673	  0.491	  0.380	  0.357	 -1.158	 -0.756	 -9.856	 -0.163	  0.300	  0.005	 33.000	 99.118	 -0.087
77723	  0.486	  0.377	  0.370	 -0.958	 -0.781	 -10.067	 -0.242	  0.544	  0.082	 33.000	 99.107	  0.911
77773	  0.475	  0.368	  0.383	 -0.762	 -0.376	 -9.264	 -0.202	  0.596	  0.168	 33.000	 99.107	  0.911
77823	  0.466	  0.363	  0.397	  0.018	 -0.631	 -9.830	 -0.160	  0.594	  0.094	 33.000	 99.118	 -0.087
77873	  0.456	  0.364	  0.417	 -0.496	 -0.534	 -9.733	 -0.137	  0.564	  0.015	 33.000	 99.118	 -0.087
77923	  0.444	  0.355	  0.432	  0.398	 -0.349	 -9.965	 -0.179	  0.524	  0.095	 33.000	 99.118	 -0.087
77973	  0.423	  0.349	  0.454	 -0.079	 -0.327	 -9.740	 -0.373	  1.042	  0.015	 33.000	 99.118	 -0.087
78023	  0.396	  0.336	  0.481	  2.075	 -0.827	 -8.821	 -0.248	  0.505	  0.032	 33.000	 99.118	 -0.087
78073	  0.389	  0.338	  0.483	  0.988	  0.030	 -9.933	 -0.032	 -0.054	  0.025	 33.000	 99.102	  1.366
78123	  0.392	  0.341	  0.483	  1.132	 -0.157	 -9.884	 -0.024	 -0.040	  0.006	 33.000	 99.107	  0.911
78173	  0.395	  0.335	  0.486	  0.855	  0.118	 -9.702	 -0.043	 -0.146	 -0.013	 33.000	 99.118	 -0.087
78223	  0.399	  0.343	  0.475	  1.088	 -0.003	 -10.081	  0.025	 -0.201	  0.033	 33.000	 99.118	 -0.087
78273	  0.403	  0.338	  0.477	  0.933	  0.220	 -9.896	 -0.002	 -0.036	  0.057	 33.000	 99.129	 -1.086
78322	  0.407	  0.346	  0.472	  0.983	 -0.393	 -9.639	  0.195	 -0.028	  0.000	 33.000	 99.118	 -0.087
78372	  0.413	  0.344	  0.468	  0.625	 -0.199	 -10.154	  0.027	 -0.166	  0.049	 33.000	 99.129	 -1.086
78422	  0.414	  0.350	  0.468	  0.724	 -0.275	 -10.181	  0.185	  0.062	 -0.195	 33.000	 99.118	 -0.087
78472	  0.409	  0.345	  0.468	  1.213	  0.065	 -10.503	 -0.010	  0.348	  0.317	 33.000	 99.118	 -0.087
78522	  0.407	  0.343	  0.475	  0.857	 -0.428	 -9.169	 -0.054	  0.021	  0.093	 33.000	 99.118	 -0.087
78572	  0.408	  0.341	  0.475	  1.167	  0.357	 -10.924	  0.215	  0.301	  0.268	 33.000	 99.122	 -0.451
78622	  0.393	  0.341	  0.487	  1.783	 -0.921	 -9.363	 -0.355	  0.198	 -0.045	 33.000	 99.118	 -0.087
78672	  0.387	  0.337	  0.491	  0.351	 -0.295	 -9.001	 -0.007	 -0.356	 -0.042	 33.000	 99.122	 -0.451
78722	  0.402	  0.336	  0.488	  0.911	 -0.141	 -9.543	 -0.156	 -0.718	 -0.196	 33.000	 99.133	 -1.449
78772	  0.411	  0.337	  0.473	  0.188	  0.036	 -11.660	 -0.006	 -0.299	 -0.067	 33.000	 99.118	 -0.087
78822	  0.400	  0.328	  0.487	  0.565	 -0.479	 -9.819	 -0.259	  0.635	 -0.046	 33.000	 99.122	 -0.451
78872	  0.388	  0.310	  0.493	  0.194	  0.113	 -7.112	 -0.880	 -0.422	 -0.085	 33.000	 99.129	 -1.086
78922	  0.396	  0.264	  0.506	  1.247	  1.173	 -10.088	 -1.209	 -0.013	  0.211	 33.000	 99.107	  0.911
78972	  0.375	  0.263	  0.517	  1.681	 -0.090	 -12.466	  0.403	  0.180	 -0.339	 33.000	 99.122	 -0.451
79022	  0.390	  0.233	  0.512	 -0.017	  3.873	 -1.086	 -2.616	 -0.882	  0.227	 33.000	 99.122	 -0.451
79072	  0.407	  0.163	  0.511	  2.339	 -2.070	 -4.036	  0.390	  0.045	  0.145	 33.000	 99.107	  0.911
79122	  0.399	  0.242	  0.499	  3.530	  2.968	 -10.643	  2.484	 -0.195	 -1.282	 33.000	 99.122	 -0.451
79172	  0.399	  0.271	  0.492	 -1.507	  4.029	 -9.464	 -1.188	 -0.394	 -0.012	 33.000	 99.111	  0.549
79222	  0.401	  0.261	  0.506	  0.944	 -0.333	 -11.757	  0.630	  0.370	 -0.005	 33.000	 99.111	  0.549
79272	  0.395	  0.278	  0.494	 -0.604	  2.813	 -3.666	 -0.124	 -0.611	  0.144	 33.000	 99.118	 -0.087
79322	  0.411	  0.265	  0.493	  2.528	  0.319	 -12.391	 -0.048	  0.636	  0.268	 33.000	 99.122	 -0.451
79372	  0.394	  0.303	  0.486	  3.034	  0.136	 -11.117	  1.435	  0.438	 -0.278	 33.000	 99.122	 -0.451
79422	  0.411	  0.278	  0.481	 -0.390	  1.264	 -15.033	 -2.213	 -0.284	  0.914	 33.000	 99.118	 -0.087
79472	  0.411	  0.275	  0.491	 -0.019	 -0.653	 -9.152	  0.357	 -0.379	 -0.126	 33.000	 99.118	 -0.087
79522	  0.415	  0.286	  0.474	 -2.082	 -0.308	 -4.343	  0.000	 -0.445	 -0.439	 33.000	 99.118	 -0.087
79572	  0.413	  0.278	  0.480	  2.628	  0.525	 -2.702	 -0.374	  1.037	  0.218	 33.000	 99.118	 -0.087
79622	  0.409	  0.287	  0.493	  4.282	  1.770	 -7.692	  1.679	 -0.438	 -0.476	 33.000	 99.118	 -0.087
79672	  0.414	  0.310	  0.474	 -1.352	  4.118	 -5.093	 -0.506	 -1.051	  0.146	 33.000	 99.118	 -0.087
79722	  0.421	  0.285	  0.486	  3.706	 -1.239	 -14.465	 -0.268	  0.896	  0.156	 33.000	 99.122	 -0.451
79772	  0.407	  0.332	  0.474	 -0.583	 -2.172	 -11.260	  2.387	 -0.194	 -0.966	 33.000	 99.118	 -0.087
79822	  0.398	  0.338	  0.468	  0.089	  5.301	 -4.383	 -2.165	 -0.513	  0.376	 33.000	 99.107	  0.911
79872	  0.406	  0.284	  0.489	  0.870	 -0.227	 -13.912	  0.848	  0.840	 -0.213	 33.000	 99.118	 -0.087
79922	  0.386	  0.314	  0.492	  0.795	  3.285	 -2.709	 -0.099	 -0.118	 -0.884	 33.000	 99.118	 -0.087
79972	  0.421	  0.264	  0.501	 -1.031	  2.784	 -11.615	 -2.710	 -0.798	  0.595	 33.000	 99.118	 -0.087
80022	  0.404	  0.262	  0.515	  0.209	  1.937	 -6.201	  2.395	  1.413	  0.380	 33.000	 99.118	 -0.087
80072	  0.401	  0.335	  0.485	  1.129	  0.191	 -9.390	  0.198	 -0.321	 -0.310	 33.000	 99.118	 -0.087
80122	  0.407	  0.310	  0.490	 -1.165	  1.272	 -14.003	  0.319	  0.479	  0.368	 33.000	 99.118	 -0.087
80172	  0.389	  0.351	  0.476	 -0.293	 -0.324	 -11.270	  1.363	 -0.171	 -0.580	 33.000	 99.111	  0.549
80222	  0.394	  0.330	  0.487	  2.262	  2.438	 -4.645	 -3.199	 -1.256	  0.097	 33.000	 99.118	 -0.087
80272	  0.429	  0.237	  0.516	 -5.023	 -2.157	 -15.637	 -0.696	 -0.165	 -0.349	 33.000	 99.118	 -0.087
80322	  0.379	  0.306	  0.504	  0.665	  3.410	 -2.209	  2.965	  1.712	 -0.952	 33.000	 99.122	 -0.451
80372	  0.390	  0.288	  0.507	  1.512	  0.354	 -9.006	 -3.723	 -1.575	  0.784	 33.000	 99.129	 -1.086
80422	  0.391	  0.265	  0.516	 -3.556	  1.916	 -15.426	  3.636	  1.022	 -0.387	 33.000	 99.133	 -1.449
80472	  0.341	  0.345	  0.500	 -3.042	  2.407	  2.630	 -1.098	 -0.098	 -0.154	 33.000	 99.118	 -0.087
80523	  0.394	  0.266	  0.517	 -1.612	 -0.304	 -13.895	 -1.184	 -0.043	  0.468	 33.000	 99.118	 -0.087
80572	  0.359	  0.332	  0.499	 -2.798	  5.625	 -9.176	  2.164	  1.415	 -0.630	 33.000	 99.129	 -1.086
80622	  0.379	  0.288	  0.515	  1.874	  0.417	 -10.858	 -3.622	 -1.585	  0.824	 33.000	 99.107	  0.911
80672	  0.371	  0.294	  0.517	 -0.454	 -0.713	 -20.070	  4.256	  1.369	 -0.876	 33.000	 99.122	 -0.451
80722	  0.331	  0.342	  0.496	  0.554	  2.915	  1.392	 -1.930	 -1.236	  0.179	 33.000	 99.118	 -0.087
80772	  0.392	  0.279	  0.516	  0.371	 -1.807	 -15.970	  1.304	  0.784	  0.049	 33.000	 99.122	 -0.451
80822	  0.335	  0.359	  0.494	  3.162	  5.521	 -0.059	  0.174	  1.201	 -0.353	 33.000	 99.111	  0.549
80872	  0.386	  0.303	  0.507	 -0.377	 -2.052	 -16.383	 -1.283	 -0.923	  0.476	 33.000	 99.107	  0.911
80922	  0.350	  0.351	  0.491	  0.257	  3.522	 -8.000	  2.358	  1.056	 -1.018	 33.000	 99.129	 -1.086
80972	  0.361	  0.356	  0.491	  1.723	 -0.196	 -8.469	 -1.854	 -1.600	  0.452	 33.000	 99.107	  0.911
81022	  0.375	  0.339	  0.491	 -0.926	  0.412	 -13.819	  1.416	  0.925	 -0.060	 33.000	 99.107	  0.911
81073	  0.347	  0.374	  0.476	  1.665	  0.308	 -5.508	 -0.029	 -0.047	 -0.162	 33.000	 99.111	  0.549
81123	  0.368	  0.334	  0.495	 -0.572	  1.655	 -10.107	 -1.288	 -0.270	  0.590	 33.000	 99.118	 -0.087
81173	  0.355	  0.375	  0.468	 -1.479	 -2.606	 -14.693	  3.586	  1.395	 -0.465	 33.000	 99.118	 -0.087
81223	  0.318	  0.450	  0.427	 -2.293	  5.169	 -2.005	 -0.940	 -1.259	 -0.255	 33.000	 99.122	 -0.451
81273	  0.398	  0.334	  0.466	  2.798	  4.878	 -5.232	 -3.087	 -1.359	  0.797	 33.000	 99.129	 -1.086
81323	  0.403	  0.347	  0.456	 -2.232	 -1.905	 -19.815	  3.800	  1.180	 -1.002	 33.000	 99.095	  2.002
81373	  0.333	  0.390	  0.458	 -1.601	  6.040	  5.812	 -2.376	 -0.745	  0.077	 33.000	 99.122	 -0.451
81423	  0.421	  0.300	  0.479	 -1.088	 -0.810	 -18.030	 -1.633	 -0.749	  0.660	 33.000	 99.118	 -0.087
81473	  0.384	  0.352	  0.474	 -1.395	  1.421	 -12.734	  2.915	  1.694	 -1.107	 33.000	 99.111	  0.549
81523	  0.366	  0.324	  0.492	  2.567	  3.565	 -1.364	 -4.127	 -1.891	  0.933	 33.000	 99.111	  0.549
81573	  0.399	  0.258	  0.506	 -2.790	 -1.831	 -20.391	  2.620	  1.161	 -0.121	 33.000	 99.122	 -0.451
81623	  0.316	  0.384	  0.474	  1.767	  5.170	  2.290	  0.336	  0.774	 -0.772	 33.000	 99.122	 -0.451
81673	  0.377	  0.301	  0.501	  1.638	  2.368	 -20.835	 -3.955	 -1.664	  1.884	 33.000	 99.107	  0.911
81723	  0.367	  0.308	  0.502	  0.810	 -3.242	 -19.084	  5.387	  1.312	 -1.034	 33.000	 99.118	 -0.087
81773	  0.320	  0.339	  0.501	  0.349	  2.789	  4.350	 -2.662	 -1.935	  0.463	 33.000	 99.118	 -0.087
81823	  0.378	  0.274	  0.510	 -2.808	  2.222	 -20.664	  1.832	  0.945	 -0.219	 33.000	 99.118	 -0.087
81873	  0.325	  0.361	  0.486	  2.952	  1.086	 -6.991	  0.379	  1.732	 -0.170	 33.000	 99.122	 -0.451
81923	  0.358	  0.312	  0.506	 -0.133	  2.126	 -15.889	 -0.870	 -1.232	  0.194	 33.000	 99.118	 -0.087
81973	  0.335	  0.349	  0.495	 -0.438	 -0.415	 -7.948	  2.249	  1.176	 -0.419	 33.000	 99.107	  0.911
82023	  0.350	  0.331	  0.496	  1.096	  1.558	 -6.665	 -2.740	 -1.665	  0.520	 33.000	 99.133	 -1.449
82073	  0.374	  0.279	  0.507	  0.058	 -0.197	 -13.080	  0.001	  0.362	  0.169	 33.000	 99.122	 -0.451
82123	  0.363	  0.296	  0.504	  1.463	 -0.810	 -9.911	  0.914	  0.039	 -0.238	 33.000	 99.107	  0.911
82173	  0.348	  0.324	  0.497	 -0.196	  0.547	 -8.787	  0.532	 -0.081	 -0.508	 33.000	 99.118	 -0.087
82223	  0.354	  0.344	  0.487	 -0.985	  2.774	 -9.172	  0.607	 -0.093	  0.118	 33.000	 99.107	  0.911
82273	  0.367	  0.353	  0.473	  1.173	 -0.719	 -10.089	  0.242	  0.072	  0.494	 33.000	 99.122	 -0.451
82323	  0.378	  0.353	  0.478	  0.693	 -1.060	 -10.264	 -0.333	 -0.448	 -0.096	 33.000	 99.122	 -0.451
82373	  0.386	  0.339	  0.483	 -0.008	  1.219	 -10.299	 -0.542	 -0.423	 -0.200	 33.000	 99.118	 -0.087
82423	  0.390	  0.331	  0.481	 -0.387	  0.918	 -10.737	 -0.068	 -0.159	  0.010	 33.000	 99.122	 -0.451
82473	  0.392	  0.333	  0.480	  1.090	  2.645	 -14.488	  0.308	 -0.066	  0.291	 33.000	 99.118	 -0.087
82523	  0.391	  0.349	  0.473	 -2.853	 -0.564	 -10.859	  1.408	 -0.666	  0.167	 33.000	 99.122	 -0.451
82573	  0.383	  0.345	  0.456	  2.718	  0.720	 11.204	 -2.353	  0.797	  0.549	 33.000	 99.122	 -0.451
82623	  0.429	  0.276	  0.482	 -0.163	 -1.000	 -31.109	 -1.775	  0.538	 -0.004	 33.000	 99.122	 -0.451
82673	  0.380	  0.325	  0.496	 -6.829	 -0.398	 -11.641	  2.302	  0.950	 -0.964	 33.000	 99.111	  0.549
82723	  0.367	  0.316	  0.483	 11.354	 -1.676	  6.574	 -2.447	 -0.311	  0.424	 33.000	 99.107	  0.911
82773	  0.392	  0.298	  0.491	 -10.753	  0.062	 -18.758	  1.216	  1.414	  0.117	 33.000	 99.118	 -0.087
82823	  0.346	  0.386	  0.463	  5.258	 -3.440	 -6.246	  1.780	  0.316	 -0.964	 33.000	 99.118	 -0.087
82873	  0.354	  0.354	  0.487	 -2.661	  3.524	 -18.990	 -3.125	 -0.878	  0.864	 33.000	 99.107	  0.911
82923	  0.366	  0.337	  0.481	  6.035	 -11.730	 -19.448	  1.305	 -1.365	 -0.994	 33.000	 99.111	  0.549
82973	  0.354	  0.327	  0.488	  1.215	  6.951	  9.572	 -0.716	  1.457	  1.401	 33.000	 99.118	 -0.087
83023	  0.368	  0.351	  0.482	 -2.274	 -5.843	 -22.711	  0.192	 -0.454	 -1.254	 33.000	 99.118	 -0.087
83073	  0.352	  0.351	  0.490	 -0.616	  2.019	 -7.085	  0.089	  0.379	  0.649	 33.000	 99.122	 -0.451
83123	  0.357	  0.349	  0.480	  0.757	 -0.652	 -8.874	  0.197	  0.051	  0.068	 33.000	 99.111	  0.549
83173	  0.372	  0.362	  0.472	 -0.334	 -0.509	 -9.730	  0.053	 -0.416	 -0.160	 33.000	 99.122	 -0.451
83223	  0.390	  0.360	  0.461	 -1.136	  1.504	 -9.167	 -0.112	 -0.592	  0.204	 33.000	 99.111	  0.549
83273	  0.412	  0.343	  0.449	  1.015	 -0.513	 -10.358	 -0.464	 -0.363	  0.234	 33.000	 99.133	 -1.449
83323	  0.425	  0.326	  0.439	 -0.121	 -0.523	 -9.593	 -0.174	 -0.518	 -0.111	 33.000	 99.122	 -0.451
83373	  0.439	  0.330	  0.425	  0.842	 -0.902	 -9.707	 -0.236	 -0.438	 -0.062	 33.000	 99.118	 -0.087
83423	  0.440	  0.320	  0.425	 -2.048	  1.038	 -10.807	  0.122	  0.361	  0.429	 33.000	 99.122	 -0.451
83473	  0.439	  0.319	  0.415	  0.529	 -0.486	 -8.922	  0.674	  0.127	  0.383	 33.000	 99.122	 -0.451
83522	  0.439	  0.325	  0.397	  0.564	  0.261	 -8.184	  1.377	  0.195	  0.142	 33.000	 99.107	  0.911
83572	  0.441	  0.329	  0.388	 -0.404	 -0.112	 -9.198	  0.161	 -0.356	  0.028	 33.000	 99.107	  0.911
83622	  0.446	  0.331	  0.385	 -0.732	 -0.185	 -9.711	  0.067	 -0.082	  0.012	 33.000	 99.122	 -0.451
83672	  0.448	  0.330	  0.377	 -0.663	 -0.584	 -9.871	 -0.200	 -0.174	  0.022	 33.000	 99.122	 -0.451
83722	  0.456	  0.315	  0.381	 -1.232	 -0.150	 -9.974	 -0.377	 -0.001	  0.328	 33.000	 99.107	  0.911
83772	  0.456	  0.302	  0.395	 -1.008	  0.183	 -9.870	 -0.310	  0.549	  0.528	 33.000	 99.122	 -0.451
83822	  0.446	  0.284	  0.410	 -0.630	 -0.072	 -9.829	 -0.157	  0.762	  0.688	 33.000	 99.118	 -0.087
83872	  0.447	  0.267	  0.422	  1.268	 -0.729	 -10.237	 -0.393	 -0.242	 -0.000	 33.000	 99.122	 -0.451
83922	  0.456	  0.256	  0.420	  0.085	 -0.046	 -9.865	 -0.550	 -0.516	  0.016	 33.000	 99.118	 -0.087
83972	  0.468	  0.241	  0.412	 -0.856	 -0.168	 -9.989	 -0.063	  0.312	  0.111	 33.000	 99.122	 -0.451
84022	  0.467	  0.253	  0.414	  0.328	  0.225	 -9.838	 -0.009	 -0.005	  0.003	 33.000	 99.111	  0.549
84072	  0.465	  0.246	  0.410	 -0.160	  0.507	 -9.716	  0.001	  0.015	 -0.017	 33.000	 99.107	  0.911
84122	  0.468	  0.242	  0.410	 -0.349	  0.518	 -9.749	 -0.003	  0.004	 -0.005	 33.000	 99.122	 -0.451
84172	  0.466	  0.240	  0.413	 -0.449	  0.525	 -9.743	 -0.003	  0.002	  0.001	 33.000	 99.122	 -0.451
84222	  0.468	  0.242	  0.413	 -0.427	  0.548	 -9.722	 -0.003	  0.002	  0.002	 33.000	 99.133	 -1.449
84272	  0.467	  0.243	  0.413	 -0.436	  0.547	 -9.766	 -0.002	  0.003	  0.003	 33.000	 99.122	 -0.451
84322	  0.467	  0.245	  0.413	 -0.438	  0.525	 -9.733	 -0.004	  0.003	 -0.000	 33.000	 99.118	 -0.087
84372	  0.466	  0.242	  0.413	 -0.449	  0.527	 -9.736	 -0.003	  0.003	  0.001	 33.000	 99.111	  0.549
84422	  0.467	  0.241	  0.411	 -0.473	  0.520	 -9.768	 -0.004	  0.003	 -0.001	 33.000	 99.122	 -0.451
84472	  0.468	  0.242	  0.411	 -0.466	  0.530	 -9.712	 -0.004	  0.002	 -0.000	 33.000	 99.111	  0.549
84522	  0.468	  0.241	  0.411	 -0.425	  0.522	 -9.747	 -0.004	  0.003	  0.000	 33.000	 99.111	  0.549
84572	  0.467	  0.249	  0.408	 -0.472	  0.533	 -9.783	 -0.003	  0.002	 -0.001	 33.000	 99.122	 -0.451
84622	  0.467	  0.243	  0.409	 -0.453	  0.547	 -9.695	 -0.003	  0.002	  0.000	 33.000	 99.122	 -0.451
84672	  0.467	  0.242	  0.412	 -0.446	  0.531	 -9.737	 -0.004	  0.003	  0.001	 33.000	 99.122	 -0.451
84722	  0.465	  0.240	  0.413	 -0.453	  0.529	 -9.752	 -0.004	  0.002	 -0.000	 33.000	 99.111	  0.549
84772	  0.467	  0.244	  0.410	 -0.459	  0.531	 -9.727	 -0.002	  0.002	  0.001	 33.000	 99.122	 -0.451
84822	  0.467	  0.241	  0.413	 -0.467	  0.520	 -9.716	 -0.003	  0.002	  0.001	 33.000	 99.122	 -0.451
84872	  0.467	  0.242	  0.412	 -0.452	  0.538	 -9.733	 -0.002	  0.003	  0.001	 33.000	 99.122	 -0.451
84922	  0.468	  0.245	  0.417	 -0.424	  0.549	 -9.762	 -0.004	  0.003	  0.001	 33.000	 99.111	  0.549
84972	  0.468	  0.242	  0.412	 -0.443	  0.543	 -9.689	 -0.003	  0.003	 -0.000	 33.000	 99.122	 -0.451
85022	  0.466	  0.241	  0.409	 -0.442	  0.531	 -9.753	 -0.004	  0.000	  0.000	 33.000	 99.122	 -0.451
85072	  0.465	  0.240	  0.410	 -0.447	  0.523	 -9.769	 -0.004	  0.004	 -0.001	 33.000	 99.111	  0.549
85122	  0.469	  0.241	  0.414	 -0.448	  0.508	 -9.735	 -0.003	  0.003	 -0.000	 33.000	 99.111	  0.549
85172	  0.468	  0.246	  0.411	 -0.458	  0.520	 -9.728	 -0.003	  0.002	 -0.001	 33.000	 99.122	 -0.451
85222	  0.466	  0.242	  0.414	 -0.462	  0.550	 -9.755	 -0.003	  0.003	 -0.000	 33.000	 99.111	  0.549
85272	  0.465	  0.241	  0.409	 -0.440	  0.521	 -9.729	 -0.004	  0.002	 -0.000	 33.000	 99.122	 -0.451
85322	  0.466	  0.242	  0.412	 -0.453	  0.540	 -9.738	 -0.003	  0.003	 -0.000	 33.000	 99.111	  0.549
85372	  0.466	  0.242	  0.413	 -0.459	  0.525	 -9.752	 -0.004	  0.004	  0.000	 33.000	 99.129	 -1.086
85422	  0.467	  0.242	  0.408	 -0.454	  0.515	 -9.745	 -0.003	  0.004	  0.000	 33.000	 99.118	 -0.087
85472	  0.465	  0.244	  0.415	 -0.457	  0.544	 -9.765	 -0.004	  0.004	  0.000	 33.000	 99.133	 -1.449
85522	  0.467	  0.243	  0.416	 -0.391	  0.498	 -9.533	 -0.006	 -0.001	  0.001	 33.000	 99.122	 -0.451
85572	  0.469	  0.243	  0.411	 -0.608	  0.517	 -9.833	 -0.008	  0.023	 -0.005	 33.000	 99.122	 -0.451
85622	  0.467	  0.245	  0.412	 -0.069	  0.498	 -9.709	  0.009	 -0.012	  0.002	 33.000	 99.107	  0.911
85672	  0.466	  0.243	  0.409	 -0.491	  0.527	 -10.118	 -0.006	  0.024	 -0.019	 33.000	 99.122	 -0.451
85722	  0.468	  0.242	  0.415	 -0.652	  0.564	 -10.081	 -0.001	  0.027	 -0.004	 33.000	 99.122	 -0.451
85772	  0.466	  0.242	  0.414	 -0.421	  0.479	 -9.524	 -0.010	  0.010	  0.007	 33.000	 99.122	 -0.451
85822	  0.467	  0.245	  0.416	 -0.427	  0.546	 -9.355	 -0.009	 -0.010	  0.006	 33.000	 99.111	  0.549
85872	  0.465	  0.242	  0.414	 -0.472	  0.532	 -9.873	  0.006	  0.007	 -0.018	 33.000	 99.118	 -0.087
85923	  0.467	  0.247	  0.415	 -0.392	  0.470	 -9.813	 -0.001	 -0.008	 -0.006	 33.000	 99.118	 -0.087
85972	  0.467	  0.242	  0.414	 -0.462	  0.493	 -9.704	  0.036	 -0.029	 -0.123	 33.000	 99.122	 -0.451
86022	  0.470	  0.251	  0.412	 -0.754	  0.577	 -9.695	  0.120	 -0.278	  0.034	 33.000	 99.118	 -0.087
86072	  0.471	  0.250	  0.400	 -0.339	  0.491	 -9.576	  0.014	 -0.035	 -0.014	 33.000	 99.122	 -0.451
86122	  0.474	  0.249	  0.403	 -0.827	  0.198	 -9.527	  0.003	  0.019	 -0.016	 33.000	 99.122	 -0.451
86172	  0.467	  0.253	  0.415	 -0.846	  0.537	 -9.649	 -0.292	  0.608	 -0.071	 33.000	 99.107	  0.911
86222	  0.464	  0.249	  0.416	 -0.449	  0.544	 -9.678	 -0.007	  0.155	 -0.047	 33.000	 99.122	 -0.451
86272	  0.460	  0.244	  0.418	 -0.153	  0.541	 -9.641	 -0.006	  0.013	  0.059	 33.000	 99.122	 -0.451
86322	  0.462	  0.247	  0.412	 -0.208	  0.491	 -9.796	 -0.003	 -0.024	  0.053	 33.000	 99.107	  0.911
86372	  0.463	  0.244	  0.418	 -0.505	  0.745	 -9.684	  0.006	  0.013	  0.023	 33.000	 99.118	 -0.087
86422	  0.463	  0.246	  0.417	 -0.554	  0.369	 -9.669	  0.010	  0.122	 -0.128	 33.000	 99.122	 -0.451
86473	  0.460	  0.246	  0.418	  0.076	  0.495	 -9.641	  0.009	  0.077	  0.018	 33.000	 99.122	 -0.451
86522	  0.456	  0.243	  0.420	 -0.390	  0.780	 -9.700	  0.021	  0.318	  0.263	 33.000	 99.118	 -0.087
86573	  0.456	  0.242	  0.428	 -0.036	  0.342	 -9.634	  0.114	  0.444	  0.377	 33.000	 99.118	 -0.087
86622	  0.448	  0.240	  0.429	 -0.190	  0.488	 -9.846	  0.204	  0.448	  0.045	 33.000	 99.122	 -0.451
86672	  0.431	  0.248	  0.435	  0.667	  0.690	 -7.900	  0.267	  0.310	  0.017	 33.000	 99.111	  0.549
86723	  0.430	  0.244	  0.435	  1.144	  0.040	 -9.840	 -0.019	 -0.001	  0.067	 33.000	 99.111	  0.549
86773	  0.433	  0.241	  0.436	  0.572	  0.357	 -9.753	 -0.306	 -0.273	 -0.068	 33.000	 99.122	 -0.451
86823	  0.444	  0.235	  0.436	  0.199	  0.259	 -9.719	 -0.207	 -0.425	  0.039	 33.000	 99.122	 -0.451
86873	  0.458	  0.234	  0.424	 -0.640	  0.817	 -10.043	 -0.111	 -0.322	 -0.024	 33.000	 99.107	  0.911
86923	  0.463	  0.231	  0.425	 -0.011	  0.277	 -9.561	  0.008	 -0.100	  0.160	 33.000	 99.122	 -0.451
86973	  0.460	  0.231	  0.425	  0.407	  0.694	 -9.489	  0.189	  0.423	 -0.049	 33.000	 99.118	 -0.087
87023	  0.453	  0.232	  0.428	  0.448	  0.189	 -9.689	  0.066	  0.160	  0.011	 33.000	 99.122	 -0.451
87073	  0.450	  0.230	  0.428	 -0.301	  0.893	 -9.720	 -0.090	 -0.168	  0.179	 33.000	 99.111	  0.549
87123	  0.465	  0.219	  0.417	 -0.153	 -0.486	 -9.797	  0.166	 -0.488	  0.663	 33.000	 99.122	 -0.451
87173	  0.480	  0.200	  0.407	  0.479	  0.418	 -9.819	 -0.094	 -0.750	  0.632	 33.000	 99.111	  0.549
87223	  0.495	  0.194	  0.389	  0.474	  0.291	 -10.027	 -0.021	 -0.195	  0.069	 33.000	 99.111	  0.549
87273	  0.498	  0.193	  0.392	 -0.072	  0.691	 -9.633	 -0.081	 -0.065	 -0.173	 33.000	 99.122	 -0.451
87323	  0.499	  0.195	  0.388	  0.371	  0.521	 -10.211	 -0.462	 -0.414	 -0.354	 33.000	 99.118	 -0.087
87373	  0.508	  0.191	  0.387	 -1.843	  0.970	 -8.860	 -0.138	 -0.303	 -0.219	 33.000	 99.107	  0.911
87423	  0.508	  0.197	  0.387	 -1.886	  0.970	 -8.902	  0.146	  0.370	  0.077	 33.000	 99.122	 -0.451
87473	  0.503	  0.197	  0.388	 -0.705	  0.461	 -10.061	  0.125	  0.101	  0.245	 33.000	 99.122	 -0.451
87523	  0.502	  0.190	  0.387	 -0.312	  0.558	 -9.584	  0.085	  0.158	  0.328	 33.000	 99.111	  0.549
87573	  0.501	  0.181	  0.388	 -0.305	  0.425	 -8.856	  0.078	  0.019	  0.225	 33.000	 99.107	  0.911
87623	  0.503	  0.183	  0.387	 -0.130	  0.262	 -9.856	  0.004	  0.076	 -0.047	 33.000	 99.111	  0.549
87673	  0.499	  0.189	  0.381	  0.048	  0.450	 -9.760	  0.101	  0.121	 -0.206	 33.000	 99.122	 -0.451
87723	  0.495	  0.203	  0.386	 -0.852	  0.629	 -9.626	  0.250	  0.291	 -0.335	 33.000	 99.122	 -0.451
87773	  0.489	  0.206	  0.382	 -0.119	  0.195	 -10.182	  0.234	  0.223	  0.018	 33.000	 99.122	 -0.451
87823	  0.488	  0.209	  0.378	  0.619	  0.338	 -9.999	 -0.027	 -0.037	 -0.160	 33.000	 99.122	 -0.451
87873	  0.486	  0.216	  0.378	 -0.773	  0.177	 -10.104	 -0.260	 -0.245	 -0.297	 33.000	 99.122	 -0.451
87923	  0.488	  0.214	  0.375	 -0.586	  0.678	 -8.886	  0.077	  0.074	 -0.073	 33.000	 99.111	  0.549
87973	  0.485	  0.220	  0.375	 -0.141	  0.360	 -9.160	  0.299	  0.294	 -0.170	 33.000	 99.107	  0.911
88023	  0.474	  0.238	  0.373	  0.246	 -0.294	 -11.035	  0.328	  0.366	 -0.251	 33.000	 99.118	 -0.087
88073	  0.473	  0.235	  0.373	 -0.754	  0.106	 -9.919	  0.062	  0.073	 -0.025	 33.000	 99.111	  0.549
88123	  0.475	  0.238	  0.377	  0.176	  0.123	 -9.517	  0.008	  0.010	 -0.030	 33.000	 99.111	  0.549
88173	  0.475	  0.242	  0.377	 -0.729	 -0.017	 -9.787	 -0.030	 -0.009	 -0.010	 33.000	 99.122	 -0.451
88223	  0.478	  0.233	  0.371	 -2.305	  0.042	 -11.017	 -0.258	 -0.148	  0.690	 33.000	 99.118	 -0.087
88273	  0.481	  0.201	  0.380	  0.354	  0.102	 -9.313	 -0.245	  0.118	  0.843	 33.000	 99.122	 -0.451
88323	  0.485	  0.172	  0.385	  1.441	  0.002	 -8.481	 -0.184	 -0.133	  0.588	 33.000	 99.122	 -0.451
88373	  0.485	  0.164	  0.384	  0.272	  0.583	 -9.673	 -0.033	 -0.002	  0.076	 33.000	 99.122	 -0.451
88423	  0.489	  0.166	  0.380	 -0.226	  0.226	 -10.120	 -0.014	 -0.006	  0.207	 33.000	 99.122	 -0.451
88473	  0.486	  0.156	  0.378	  0.238	  0.542	 -9.524	 -0.001	 -0.081	  0.341	 33.000	 99.111	  0.549
88523	  0.488	  0.148	  0.383	  0.640	  0.230	 -10.100	 -0.319	 -0.047	  0.093	 33.000	 99.111	  0.549
88573	  0.496	  0.149	  0.372	  0.850	  0.563	 -8.924	  0.087	 -0.922	 -0.331	 33.000	 99.111	  0.549
88623	  0.514	  0.155	  0.365	 -2.213	  1.777	 -6.865	 -0.351	 -0.403	 -0.173	 33.000	 99.122	 -0.451
88673	  0.514	  0.149	  0.360	 -0.682	  0.781	 -8.144	  0.232	  0.178	  0.231	 33.000	 99.122	 -0.451
88723	  0.506	  0.151	  0.366	 -0.633	  0.229	 -9.239	  0.457	  0.472	  0.248	 33.000	 99.111	  0.549
88773	  0.497	  0.160	  0.370	 -0.097	 -0.029	 -10.224	  0.419	  0.537	 -0.016	 33.000	 99.122	 -0.451
88823	  0.491	  0.165	  0.370	 -0.258	  0.189	 -10.366	  0.143	  0.163	  0.229	 33.000	 99.107	  0.911
88873	  0.491	  0.159	  0.369	  0.036	 -0.096	 -10.123	 -0.037	 -0.003	  0.240	 33.000	 99.133	 -1.449
88923	  0.486	  0.145	  0.376	  1.129	  0.070	 -8.273	 -0.241	  0.107	  0.231	 33.000	 99.118	 -0.087
88973	  0.493	  0.148	  0.375	  1.040	 -0.199	 -9.983	 -0.147	 -0.217	 -0.186	 33.000	 99.111	  0.549
89023	  0.497	  0.160	  0.370	 -0.237	 -1.349	 -8.154	 -0.088	 -0.073	 -0.956	 33.000	 99.107	  0.911
89073	  0.495	  0.167	  0.369	 -0.983	  0.239	 -10.301	  0.073	  0.325	  0.240	 33.000	 99.118	 -0.087
89123	  0.491	  0.164	  0.372	  0.647	  0.100	 -11.189	  0.115	  0.277	  0.319	 33.000	 99.111	  0.549
89173	  0.487	  0.156	  0.377	 -0.082	  0.114	 -11.582	 -0.025	  0.085	  0.492	 33.000	 99.122	 -0.451
89223	  0.484	  0.152	  0.377	 -0.172	  0.356	 -10.090	 -0.049	  0.145	  0.049	 33.000	 99.111	  0.549
89273	  0.480	  0.143	  0.383	  0.870	 -0.198	 -9.938	 -0.154	  0.148	  0.161	 33.000	 99.122	 -0.451
89323	  0.480	  0.145	  0.380	  0.072	  0.263	 -9.059	 -0.097	 -0.074	  0.147	 33.000	 99.111	  0.549
89373	  0.482	  0.139	  0.383	  0.537	 -0.013	 -10.050	 -0.028	 -0.205	  0.004	 33.000	 99.111	  0.549
89423	  0.491	  0.137	  0.373	  0.132	 -0.023	 -9.628	 -0.001	 -0.388	 -0.040	 33.000	 99.111	  0.549
89473	  0.501	  0.142	  0.363	  2.113	 -1.338	 -13.852	 -0.345	 -0.146	 -0.240	 33.000	 99.126	 -0.813
89523	  0.500	  0.149	  0.364	 -0.103	  0.164	 -9.843	  0.239	  0.261	  0.042	 33.000	 99.111	  0.549
89573	  0.495	  0.153	  0.365	  0.638	 -0.007	 -9.747	  0.162	  0.095	 -0.261	 33.000	 99.099	  1.638
89623	  0.492	  0.166	  0.369	 -0.697	  0.335	 -9.082	  0.020	 -0.056	 -0.364	 33.000	 99.111	  0.549
89673	  0.486	  0.179	  0.372	 -0.065	  0.419	 -9.646	  0.022	 -0.064	 -0.290	 33.000	 99.122	 -0.451
89723	  0.485	  0.188	  0.382	 -1.042	  0.340	 -9.568	  0.003	  0.003	 -0.125	 33.000	 99.133	 -1.449
89773	  0.482	  0.191	  0.383	  0.129	 -0.006	 -9.821	 -0.003	  0.002	 -0.063	 33.000	 99.122	 -0.451
89823	  0.482	  0.198	  0.386	  0.083	 -0.012	 -9.714	 -0.004	  0.001	 -0.018	 33.000	 99.122	 -0.451
89873	  0.480	  0.194	  0.381	  0.249	  0.089	 -9.729	 -0.001	  0.013	 -0.074	 33.000	 99.111	  0.549
89923	  0.481	  0.197	  0.386	  0.135	 -0.003	 -9.708	 -0.002	  0.004	  0.002	 33.000	 99.111	  0.549
89973	  0.481	  0.196	  0.386	  0.099	 -0.030	 -9.752	 -0.003	  0.003	 -0.000	 33.000	 99.122	 -0.451
90023	  0.481	  0.199	  0.390	  0.031	  0.032	 -9.726	  0.002	  0.003	  0.001	 33.000	 99.111	  0.549
90073	  0.481	  0.197	  0.386	  0.072	  0.029	 -9.748	 -0.006	 -0.000	  0.000	 33.000	 99.111	  0.549
90123	  0.480	  0.197	  0.387	  0.083	 -0.009	 -9.753	 -0.000	  0.005	  0.014	 33.000	 99.122	 -0.451
90173	  0.482	  0.196	  0.384	  0.053	  0.001	 -9.775	 -0.002	  0.004	  0.002	 33.000	 99.111	  0.549
90223	  0.482	  0.199	  0.380	  0.085	 -0.031	 -9.798	 -0.005	 -0.003	  0.003	 33.000	 99.122	 -0.451
90273	  0.481	  0.194	  0.384	  0.059	  0.005	 -9.796	 -0.005	  0.008	  0.033	 33.000	 99.111	  0.549
90323	  0.484	  0.192	  0.383	 -0.085	 -0.055	 -9.751	 -0.004	  0.004	  0.096	 33.000	 99.122	 -0.451
90372	  0.482	  0.189	  0.383	  0.106	  0.029	 -9.755	 -0.004	  0.007	  0.042	 33.000	 99.133	 -1.449
90422	  0.485	  0.189	  0.384	  0.107	  0.021	 -9.763	 -0.003	 -0.007	  0.016	 33.000	 99.122	 -0.451
90472	  0.482	  0.195	  0.384	  0.058	 -0.016	 -9.761	 -0.002	 -0.002	 -0.001	 33.000	 99.111	  0.549
90523	  0.483	  0.191	  0.381	  0.064	 -0.033	 -9.813	 -0.003	 -0.000	 -0.008	 33.000	 99.111	  0.549
90572	  0.484	  0.191	  0.381	  0.054	 -0.017	 -9.757	 -0.002	 -0.000	 -0.030	 33.000	 99.122	 -0.451
90622	  0.481	  0.193	  0.384	  0.021	 -0.010	 -9.787	 -0.003	  0.000	 -0.007	 33.000	 99.115	  0.186
90672	  0.484	  0.195	  0.383	  0.013	  0.005	 -9.731	 -0.005	  0.004	 -0.005	 33.000	 99.122	 -0.451
90722	  0.484	  0.196	  0.388	  0.082	 -0.022	 -9.777	 -0.004	  0.003	 -0.004	 33.000	 99.111	  0.549
90772	  0.484	  0.193	  0.384	  0.096	 -0.002	 -9.750	 -0.003	  0.002	 -0.018	 33.000	 99.133	 -1.449
90822	  0.484	  0.194	  0.387	  0.084	  0.012	 -9.736	 -0.003	  0.002	 -0.016	 33.000	 99.111	  0.549
90872	  0.484	  0.195	  0.386	  0.039	  0.020	 -9.719	 -0.004	  0.001	 -0.014	 33.000	 99.122	 -0.451
90922	  0.481	  0.192	  0.388	  0.050	  0.013	 -9.771	 -0.003	  0.003	 -0.001	 33.000	 99.122	 -0.451
90972	  0.482	  0.197	  0.384	  0.069	 -0.011	 -9.780	 -0.004	  0.003	  0.000	 33.000	 99.111	  0.549
91022	  0.481	  0.196	  0.384	  0.098	 -0.003	 -9.739	 -0.002	  0.002	 -0.010	 33.000	 99.122	 -0.451
91072	  0.482	  0.196	  0.384	  0.062	 -0.014	 -9.766	 -0.004	  0.003	 -0.012	 33.000	 99.133	 -1.449
91122	  0.481	  0.193	  0.384	  0.125	 -0.005	 -9.790	 -0.003	  0.003	 -0.020	 33.000	 99.111	  0.549
91172	  0.481	  0.199	  0.390	 -0.124	 -0.015	 -9.759	 -0.003	  0.005	 -0.026	 33.000	 99.111	  0.549
91223	  0.481	  0.200	  0.386	  0.098	 -0.010	 -9.748	 -0.004	  0.002	 -0.002	 33.000	 99.111	  0.549
91272	  0.481	  0.195	  0.386	  0.165	  0.010	 -9.755	 -0.002	 -0.002	 -0.027	 33.000	 99.111	  0.549
91322	  0.481	  0.201	  0.386	  0.275	 -0.002	 -9.739	 -0.001	 -0.000	 -0.105	 33.000	 99.122	 -0.451
91372	  0.479	  0.203	  0.383	  0.135	  0.021	 -9.730	  0.001	 -0.006	 -0.077	 33.000	 99.133	 -1.449
91422	  0.479	  0.211	  0.386	 -0.062	  0.030	 -9.721	 -0.001	 -0.003	 -0.059	 33.000	 99.122	 -0.451
91472	  0.479	  0.205	  0.383	 -0.147	  0.019	 -9.770	 -0.003	  0.010	 -0.137	 33.000	 99.118	 -0.087
91522	  0.479	  0.211	  0.390	  0.130	  0.004	 -9.760	 -0.001	  0.001	 -0.144	 33.000	 99.122	 -0.451
91572	  0.478	  0.220	  0.389	  0.089	 -0.008	 -9.695	  0.002	  0.006	 -0.252	 33.000	 99.111	  0.549
91622	  0.475	  0.218	  0.385	  0.016	 -0.015	 -9.760	 -0.002	  0.004	 -0.092	 33.000	 99.111	  0.549
91672	  0.474	  0.221	  0.385	 -0.049	 -0.010	 -9.778	 -0.004	  0.002	 -0.025	 33.000	 99.122	 -0.451
91722	  0.475	  0.223	  0.389	  0.027	 -0.012	 -9.790	 -0.002	  0.006	  0.001	 33.000	 99.122	 -0.451
91772	  0.474	  0.228	  0.391	  0.025	 -0.007	 -9.809	 -0.003	  0.003	 -0.002	 33.000	 99.118	 -0.087
91822	  0.473	  0.229	  0.394	  0.238	  0.008	 -9.708	 -0.003	 -0.004	 -0.122	 33.000	 99.122	 -0.451
91873	  0.472	  0.231	  0.393	 -0.098	 -0.032	 -9.791	 -0.004	  0.002	  0.004	 33.000	 99.133	 -1.449
91922	  0.475	  0.228	  0.393	  0.040	 -0.011	 -9.790	 -0.013	 -0.001	  0.000	 33.000	 99.122	 -0.451
91972	  0.473	  0.231	  0.391	  0.036	 -0.016	 -9.701	 -0.005	  0.005	 -0.001	 33.000	 99.133	 -1.449
92022	  0.473	  0.226	  0.387	  0.081	 -0.003	 -9.751	 -0.003	  0.004	  0.002	 33.000	 99.122	 -0.451
92073	  0.471	  0.226	  0.388	  0.039	  0.041	 -9.769	 -0.013	 -0.003	  0.001	 33.000	 99.111	  0.549
92123	  0.472	  0.226	  0.387	  0.073	 -0.039	 -9.865	 -0.008	 -0.010	 -0.002	 33.000	 99.122	 -0.451
92173	  0.475	  0.227	  0.389	  0.035	  0.015	 -9.736	  0.000	  0.007	  0.002	 33.000	 99.122	 -0.451
92223	  0.472	  0.233	  0.390	  0.004	  0.041	 -9.712	  0.004	  0.007	 -0.005	 33.000	 99.126	 -0.813
92273	  0.475	  0.227	  0.394	 -0.049	  0.041	 -9.708	 -0.001	 -0.003	 -0.051	 33.000	 99.111	  0.549
92323	  0.473	  0.228	  0.389	  0.029	  0.007	 -9.760	 -0.002	  0.003	 -0.008	 33.000	 99.111	  0.549
92373	  0.475	  0.228	  0.391	 -0.012	  0.062	 -9.617	 -0.018	 -0.015	 -0.033	 33.000	 99.122	 -0.451
92423	  0.473	  0.232	  0.388	  0.378	 -0.089	 -9.979	 -0.031	 -0.026	 -0.202	 33.000	 99.111	  0.549
92473	  0.472	  0.235	  0.391	  0.064	  0.018	 -9.655	  0.047	  0.054	 -0.179	 33.000	 99.111	  0.549
92523	  0.472	  0.240	  0.387	  0.071	  0.046	 -9.649	 -0.021	 -0.018	 -0.181	 33.000	 99.111	  0.549
92573	  0.467	  0.244	  0.389	  0.159	 -0.032	 -9.836	 -0.003	  0.002	 -0.139	 33.000	 99.122	 -0.451
92623	  0.468	  0.248	  0.391	  0.192	  0.052	 -9.702	 -0.041	 -0.027	 -0.148	 33.000	 99.122	 -0.451
92673	  0.470	  0.248	  0.395	 -0.300	  0.141	 -9.596	 -0.028	 -0.017	 -0.058	 33.000	 99.126	 -0.813
92723	  0.470	  0.252	  0.392	 -0.053	  0.056	 -9.771	  0.015	  0.026	 -0.014	 33.000	 99.122	 -0.451
92773	  0.466	  0.251	  0.392	 -0.032	  0.051	 -9.781	  0.002	  0.013	  0.003	 33.000	 99.122	 -0.451
92823	  0.468	  0.250	  0.395	  0.052	  0.042	 -9.748	  0.012	  0.022	  0.058	 33.000	 99.111	  0.549
92873	  0.468	  0.254	  0.396	  0.050	  0.027	 -9.845	  0.045	  0.055	  0.009	 33.000	 99.126	 -0.813
92923	  0.467	  0.252	  0.396	 -0.138	  0.005	 -9.875	 -0.025	 -0.013	  0.002	 33.000	 99.122	 -0.451
92973	  0.467	  0.251	  0.393	  0.011	  0.093	 -9.665	  0.097	  0.114	  0.024	 33.000	 99.111	  0.549
93023	  0.467	  0.257	  0.393	  0.006	  0.038	 -9.759	 -0.005	  0.013	  0.033	 33.000	 99.115	  0.186
93073	  0.465	  0.251	  0.388	  0.206	 -0.028	 -9.751	 -0.005	  0.007	  0.130	 33.000	 99.099	  1.638
93123	  0.468	  0.253	  0.398	 -0.082	  0.058	 -9.686	 -0.015	 -0.004	  0.028	 33.000	 99.111	  0.549
93173	  0.468	  0.249	  0.392	  0.220	 -0.224	 -10.232	  0.023	 -0.002	  0.007	 33.000	 99.122	 -0.451
93223	  0.468	  0.252	  0.397	  0.141	 -0.147	 -9.946	 -0.006	  0.003	  0.005	 33.000	 99.111	  0.549
93273	  0.467	  0.248	  0.393	  0.045	 -0.016	 -9.767	 -0.003	  0.001	  0.002	 33.000	 99.122	 -0.451
93323	  0.467	  0.253	  0.399	  0.069	  0.005	 -9.774	 -0.002	 -0.001	  0.003	 33.000	 99.111	  0.549
93373	  0.465	  0.248	  0.394	  0.201	 -0.119	 -9.732	 -0.004	 -0.001	  0.005	 33.000	 99.111	  0.549
93423	  0.468	  0.248	  0.393	  0.041	 -0.239	 -9.833	 -0.004	 -0.001	  0.087	 33.000	 99.126	 -0.813
93473	  0.467	  0.249	  0.394	  0.068	  0.024	 -9.708	 -0.003	 -0.002	  0.002	 33.000	 99.122	 -0.451
93523	  0.467	  0.246	  0.399	  0.052	 -0.021	 -9.774	 -0.004	  0.004	  0.001	 33.000	 99.122	 -0.451
93573	  0.468	  0.247	  0.398	  0.088	 -0.030	 -9.775	 -0.003	  0.004	  0.000	 33.000	 99.111	  0.549
93623	  0.468	  0.249	  0.394	  0.082	 -0.006	 -9.805	 -0.003	  0.002	  0.001	 33.000	 99.126	 -0.813
93673	  0.468	  0.247	  0.395	  0.070	 -0.000	 -9.759	 -0.003	  0.002	  0.001	 33.000	 99.111	  0.549
93723	  0.467	  0.248	  0.396	  0.078	 -0.016	 -9.804	 -0.003	  0.003	  0.000	 33.000	 99.122	 -0.451
93773	  0.468	  0.244	  0.395	  0.045	 -0.005	 -9.737	 -0.003	  0.002	  0.001	 33.000	 99.111	  0.549
93823	  0.468	  0.246	  0.394	  0.057	  0.004	 -9.727	 -0.004	  0.003	 -0.001	 33.000	 99.099	  1.638
93873	  0.465	  0.245	  0.391	  0.084	  0.013	 -9.721	 -0.004	  0.004	 -0.001	 33.000	 99.111	  0.549
93923	  0.467	  0.246	  0.399	  0.053	  0.008	 -9.767	 -0.004	  0.003	 -0.000	 33.000	 99.111	  0.549
93973	  0.467	  0.247	  0.393	  0.056	 -0.007	 -9.745	 -0.003	  0.003	 -0.000	 33.000	 99.111	  0.549
94023	  0.465	  0.247	  0.397	  0.068	 -0.001	 -9.757	 -0.002	  0.004	  0.001	 33.000	 99.111	  0.549
94073	  0.467	  0.246	  0.390	  0.069	 -0.037	 -9.750	 -0.003	  0.003	  0.001	 33.000	 99.111	  0.549
94123	  0.467	  0.247	  0.398	  0.038	  0.003	 -9.804	 -0.003	  0.004	  0.001	 33.000	 99.111	  0.549
94173	  0.465	  0.246	  0.396	  0.065	 -0.024	 -9.790	 -0.004	  0.001	  0.000	 33.000	 99.111	  0.549
94223	  0.467	  0.246	  0.392	  0.055	 -0.022	 -9.767	 -0.004	  0.001	 -0.000	 33.000	 99.111	  0.549
94273	  0.463	  0.246	  0.394	  0.052	 -0.029	 -9.764	 -0.004	  0.004	  0.000	 33.000	 99.122	 -0.451
94323	  0.465	  0.245	  0.396	  0.056	 -0.023	 -9.755	 -0.003	  0.003	 -0.000	 33.000	 99.122	 -0.451
94373	  0.467	  0.244	  0.397	  0.073	 -0.003	 -9.748	 -0.004	  0.000	 -0.001	 33.000	 99.111	  0.549
94423	  0.465	  0.248	  0.394	  0.040	 -0.039	 -9.773	 -0.003	  0.003	 -0.000	 33.000	 99.111	  0.549
94473	  0.468	  0.248	  0.395	  0.057	 -0.009	 -9.756	 -0.004	  0.003	  0.001	 33.000	 99.122	 -0.451
94523	  0.465	  0.248	  0.398	  0.057	  0.001	 -9.772	 -0.002	  0.003	  0.000	 33.000	 99.122	 -0.451
94573	  0.465	  0.247	  0.394	  0.061	 -0.004	 -9.747	 -0.003	  0.004	  0.000	 33.000	 99.111	  0.549
94623	  0.465	  0.248	  0.392	  0.065	 -0.011	 -9.744	 -0.004	  0.002	  0.001	 33.000	 99.122	 -0.451
94673	  0.468	  0.250	  0.396	  0.050	 -0.025	 -9.813	 -0.005	  0.002	 -0.001	 33.000	 99.122	 -0.451
94723	  0.467	  0.249	  0.393	  0.082	 -0.012	 -9.778	 -0.004	  0.003	  0.001	 33.000	 99.126	 -0.813
94773	  0.465	  0.247	  0.394	  0.065	 -0.019	 -9.753	 -0.004	  0.002	  0.002	 33.000	 99.122	 -0.451
94823	  0.465	  0.245	  0.393	  0.053	 -0.022	 -9.779	 -0.002	  0.003	  0.001	 33.000	 99.122	 -0.451
94873	  0.463	  0.246	  0.398	  0.075	 -0.029	 -9.719	 -0.003	  0.004	  0.001	 33.000	 99.111	  0.549
94923	  0.465	  0.250	  0.394	  0.051	 -0.026	 -9.776	 -0.003	  0.002	  0.000	 33.000	 99.122	 -0.451
94973	  0.465	  0.248	  0.394	  0.057	 -0.003	 -9.767	 -0.004	  0.004	 -0.000	 33.000	 99.111	  0.549
95023	  0.464	  0.248	  0.396	  0.051	 -0.028	 -9.744	 -0.002	  0.002	  0.002	 33.000	 99.111	  0.549
95073	  0.464	  0.250	  0.393	  0.064	 -0.018	 -9.774	 -0.003	  0.004	  0.001	 33.000	 99.133	 -1.449
95123	  0.466	  0.250	  0.397	  0.049	 -0.010	 -9.789	 -0.004	  0.004	  0.001	 33.000	 99.126	 -0.813
95173	  0.465	  0.249	  0.393	  0.064	 -0.019	 -9.767	 -0.003	  0.000	  0.000	 33.000	 99.122	 -0.451
95223	  0.465	  0.252	  0.394	  0.039	 -0.037	 -9.753	 -0.004	  0.004	  0.000	 33.000	 99.115	  0.186
95273	  0.463	  0.248	  0.392	  0.090	 -0.028	 -9.754	 -0.003	  0.003	 -0.000	 33.000	 99.111	  0.549
95323	  0.463	  0.245	  0.394	  0.042	 -0.018	 -9.762	 -0.004	  0.002	  0.000	 33.000	 99.122	 -0.451
95372	  0.465	  0.246	  0.393	  0.059	 -0.032	 -9.775	 -0.003	  0.003	  0.000	 33.000	 99.115	  0.186
95422	  0.465	  0.249	  0.396	  0.067	 -0.014	 -9.761	 -0.003	  0.004	  0.001	 33.000	 99.115	  0.186
95472	  0.464	  0.250	  0.393	  0.038	 -0.006	 -9.751	 -0.004	  0.003	 -0.001	 33.000	 99.115	  0.186
95522	  0.465	  0.249	  0.394	  0.033	 -0.022	 -9.735	 -0.003	  0.003	  0.000	 33.000	 99.099	  1.638
95572	  0.465	  0.249	  0.393	  0.076	  0.005	 -9.742	 -0.003	  0.004	  0.001	 33.000	 99.111	  0.549
95622	  0.465	  0.250	  0.394	  0.050	 -0.017	 -9.758	 -0.005	  0.003	  0.001	 33.000	 99.126	 -0.813
95672	  0.463	  0.245	  0.394	  0.062	 -0.023	 -9.774	 -0.003	  0.004	  0.001	 33.000	 99.111	  0.549
95722	  0.465	  0.248	  0.392	  0.053	 -0.040	 -9.771	 -0.004	  0.003	 -0.000	 33.000	 99.111	  0.549
95772	  0.464	  0.257	  0.397	  0.070	 -0.014	 -9.754	 -0.003	  0.003	  0.001	 33.000	 99.126	 -0.813
95822	  0.465	  0.249	  0.390	  0.055	 -0.024	 -9.742	 -0.002	  0.001	  0.001	 33.000	 99.111	  0.549
95872	  0.462	  0.248	  0.392	  0.068	 -0.041	 -9.738	 -0.004	  0.004	 -0.000	 33.000	 99.111	  0.549
95922	  0.466	  0.250	  0.394	  0.065	 -0.002	 -9.746	 -0.004	  0.004	  0.001	 33.000	 99.111	  0.549
95972	  0.465	  0.246	  0.394	  0.036	  0.007	 -9.744	 -0.003	  0.002	  0.000	 33.000	 99.111	  0.549
96022	  0.465	  0.248	  0.393	  0.052	 -0.004	 -9.773	 -0.003	  0.002	 -0.001	 33.000	 99.122	 -0.451
96072	  0.466	  0.253	  0.393	  0.101	 -0.014	 -9.781	 -0.003	  0.002	 -0.001	 33.000	 99.126	 -0.813
96122	  0.464	  0.253	  0.390	  0.072	 -0.016	 -9.779	 -0.004	  0.003	  0.001	 33.000	 99.122	 -0.451
96172	  0.465	  0.246	  0.393	  0.048	 -0.006	 -9.748	 -0.004	  0.003	  0.001	 33.000	 99.126	 -0.813
96222	  0.463	  0.245	  0.396	  0.065	 -0.027	 -9.754	 -0.004	  0.003	  0.001	 33.000	 99.111	  0.549
96272	  0.464	  0.247	  0.393	  0.057	 -0.009	 -9.775	 -0.003	  0.001	  0.002	 33.000	 99.111	  0.549
96322	  0.464	  0.248	  0.393	  0.048	  0.005	 -9.724	 -0.004	  0.003	  0.001	 33.000	 99.111	  0.549
96372	  0.465	  0.248	  0.392	  0.071	 -0.025	 -9.788	 -0.003	  0.004	  0.002	 33.000	 99.122	 -0.451
96422	  0.465	  0.247	  0.392	  0.064	 -0.003	 -9.756	 -0.004	  0.003	  0.001	 33.000	 99.122	 -0.451
96472	  0.465	  0.250	  0.394	  0.045	 -0.006	 -9.747	 -0.003	  0.002	  0.000	 33.000	 99.111	  0.549
96522	  0.465	  0.247	  0.396	  0.053	 -0.018	 -9.772	 -0.004	  0.003	  0.001	 33.000	 99.111	  0.549
96572	  0.463	  0.244	  0.393	  0.083	 -0.019	 -9.741	 -0.003	  0.002	  0.000	 33.000	 99.111	  0.549
96622	  0.467	  0.248	  0.393	  0.057	 -0.011	 -9.769	 -0.004	  0.002	  0.000	 33.000	 99.111	  0.549
96672	  0.463	  0.250	  0.397	  0.043	 -0.009	 -9.758	 -0.004	  0.003	  0.001	 33.000	 99.111	  0.549
96722	  0.463	  0.247	  0.394	  0.075	 -0.009	 -9.764	 -0.004	  0.003	  0.001	 33.000	 99.111	  0.549
96772	  0.465	  0.247	  0.396	  0.048	  0.010	 -9.773	 -0.004	  0.003	  0.001	 33.000	 99.126	 -0.813
96823	  0.465	  0.247	  0.389	  0.077	  0.001	 -9.773	 -0.004	  0.002	  0.000	 33.000	 99.111	  0.549
96872	  0.464	  0.254	  0.395	  0.056	  0.002	 -9.756	 -0.003	  0.003	  0.001	 33.000	 99.122	 -0.451
96922	  0.465	  0.248	  0.394	  0.039	 -0.009	 -9.766	 -0.004	  0.003	  0.002	 33.000	 99.122	 -0.451
96972	  0.465	  0.249	  0.390	  0.043	 -0.007	 -9.756	 -0.002	  0.003	 -0.000	 33.000	 99.111	  0.549
97022	  0.465	  0.248	  0.393	  0.069	 -0.010	 -9.752	 -0.003	  0.003	  0.000	 33.000	 99.122	 -0.451
97072	  0.464	  0.248	  0.394	  0.040	  0.027	 -9.761	 -0.003	  0.002	  0.000	 33.000	 99.111	  0.549
97122	  0.465	  0.248	  0.394	  0.060	 -0.005	 -9.792	 -0.004	  0.001	  0.000	 33.000	 99.115	  0.186
97172	  0.465	  0.248	  0.397	  0.060	 -0.012	 -9.769	 -0.003	  0.002	  0.001	 33.000	 99.111	  0.549
97222	  0.463	  0.247	  0.389	  0.055	 -0.002	 -9.786	 -0.003	  0.003	  0.000	 33.000	 99.111	  0.549
97272	  0.465	  0.246	  0.396	  0.060	 -0.024	 -9.769	 -0.004	  0.002	 -0.000	 33.000	 99.115	  0.186
97322	  0.465	  0.245	  0.397	  0.030	 -0.010	 -9.793	 -0.003	  0.003	  0.001	 33.000	 99.122	 -0.451
97373	  0.462	  0.247	  0.393	  0.055	 -0.011	 -9.738	 -0.003	  0.001	  0.002	 33.000	 99.115	  0.186
97422	  0.464	  0.247	  0.396	  0.085	 -0.009	 -9.772	 -0.003	  0.003	  0.001	 33.000	 99.111	  0.549
97473	  0.463	  0.248	  0.394	  0.051	 -0.012	 -9.731	 -0.004	  0.004	  0.001	 33.000	 99.122	 -0.451
97522	  0.464	  0.251	  0.392	  0.054	 -0.017	 -9.786	 -0.004	  0.001	  0.000	 33.000	 99.126	 -0.813
97573	  0.464	  0.250	  0.396	  0.084	 -0.010	 -9.771	 -0.003	  0.001	 -0.000	 33.000	 99.111	  0.549
97623	  0.463	  0.247	  0.394	  0.054	 -0.015	 -9.722	 -0.003	  0.001	  0.001	 33.000	 99.122	 -0.451
97673	  0.463	  0.250	  0.391	  0.069	 -0.005	 -9.762	 -0.004	  0.002	  0.001	 33.000	 99.111	  0.549
97723	  0.466	  0.253	  0.397	  0.041	 -0.020	 -9.763	 -0.004	  0.002	 -0.000	 33.000	 99.111	  0.549
97773	  0.465	  0.249	  0.393	  0.069	  0.008	 -9.741	 -0.003	  0.001	  0.000	 33.000	 99.115	  0.186
97823	  0.464	  0.248	  0.393	  0.067	 -0.018	 -9.727	 -0.005	  0.003	 -0.000	 33.000	 99.126	 -0.813
97873	  0.463	  0.247	  0.393	  0.071	 -0.024	 -9.743	 -0.003	  0.002	  0.001	 33.000	 99.111	  0.549
97923	  0.465	  0.251	  0.394	  0.052	 -0.004	 -9.758	 -0.003	  0.002	  0.000	 33.000	 99.122	 -0.451
97973	  0.467	  0.246	  0.394	  0.057	 -0.013	 -9.761	 -0.003	  0.001	  0.001	 33.000	 99.122	 -0.451
98023	  0.462	  0.249	  0.390	  0.042	 -0.010	 -9.712	 -0.005	  0.003	  0.000	 33.000	 99.111	  0.549
98073	  0.465	  0.248	  0.393	  0.059	 -0.009	 -9.783	 -0.002	  0.003	  0.001	 33.000	 99.111	  0.549
98123	  0.463	  0.255	  0.392	  0.074	 -0.009	 -9.761	 -0.004	  0.004	  0.001	 33.000	 99.126	 -0.813
98173	  0.464	  0.252	  0.391	  0.039	  0.008	 -9.764	 -0.004	  0.001	  0.000	 33.000	 99.111	  0.549
98223	  0.465	  0.248	  0.394	  0.076	 -0.008	 -9.745	 -0.003	  0.002	  0.001	 33.000	 99.122	 -0.451
98273	  0.464	  0.246	  0.392	  0.059	 -0.018	 -9.765	 -0.005	  0.003	 -0.000	 33.000	 99.126	 -0.813
98323	  0.465	  0.247	  0.394	  0.065	 -0.023	 -9.782	 -0.004	  0.003	  0.001	 33.000	 99.126	 -0.813
98373	  0.462	  0.250	  0.394	  0.048	 -0.017	 -9.763	 -0.003	  0.002	  0.001	 33.000	 99.115	  0.186
98423	  0.465	  0.247	  0.393	  0.069	 -0.022	 -9.735	 -0.002	  0.002	  0.001	 33.000	 99.126	 -0.813
98473	  0.463	  0.245	  0.391	  0.055	  0.003	 -9.763	 -0.003	  0.004	 -0.000	 33.000	 99.111	  0.549
98523	  0.465	  0.248	  0.392	  0.044	  0.013	 -9.751	 -0.004	  0.002	  0.001	 33.000	 99.111	  0.549
98573	  0.464	  0.247	  0.392	  0.041	 -0.010	 -9.760	 -0.004	  0.003	  0.000	 33.000	 99.111	  0.549
98623	  0.465	  0.246	  0.396	  0.059	  0.017	 -9.799	 -0.003	  0.001	  0.001	 33.000	 99.115	  0.186
98673	  0.464	  0.252	  0.391	  0.062	 -0.020	 -9.742	 -0.004	  0.003	 -0.001	 33.000	 99.111	  0.549
98723	  0.465	  0.248	  0.392	  0.069	 -0.018	 -9.780	 -0.004	  0.002	  0.001	 33.000	 99.122	 -0.451
98773	  0.467	  0.247	  0.393	  0.070	 -0.005	 -9.752	 -0.004	  0.002	  0.001	 33.000	 99.111	  0.549
98823	  0.465	  0.249	  0.392	  0.075	 -0.019	 -9.760	 -0.003	  0.002	 -0.000	 33.000	 99.126	 -0.813
98873	  0.463	  0.247	  0.397	  0.046	 -0.021	 -9.746	 -0.004	  0.003	 -0.000	 33.000	 99.111	  0.549
98923	  0.465	  0.247	  0.394	  0.082	 -0.011	 -9.741	 -0.004	  0.002	  0.001	 33.000	 99.115	  0.186
98973	  0.464	  0.247	  0.393	  0.071	 -0.008	 -9.746	 -0.004	  0.002	  0.001	 33.000	 99.111	  0.549
99023	  0.465	  0.249	  0.396	  0.052	 -0.015	 -9.749	 -0.004	  0.003	  0.000	 33.000	 99.115	  0.186
99073	  0.464	  0.246	  0.396	  0.066	 -0.018	 -9.776	 -0.003	  0.003	  0.001	 33.000	 99.115	  0.186
99123	  0.465	  0.249	  0.394	  0.060	 -0.042	 -9.762	 -0.002	  0.004	  0.000	 33.000	 99.111	  0.549
99173	  0.465	  0.247	  0.396	  0.063	 -0.008	 -9.787	 -0.003	  0.002	 -0.001	 33.000	 99.122	 -0.451
99223	  0.464	  0.250	  0.392	  0.051	 -0.024	 -9.705	 -0.004	  0.001	 -0.000	 33.000	 99.126	 -0.813
99273	  0.462	  0.251	  0.395	  0.047	  0.004	 -9.767	 -0.004	  0.004	  0.000	 33.000	 99.138	 -1.903
99323	  0.465	  0.249	  0.393	  0.079	 -0.009	 -9.815	 -0.004	  0.003	  0.000	 33.000	 99.122	 -0.451
99373	  0.462	  0.251	  0.396	  0.062	 -0.019	 -9.763	 -0.004	  0.003	  0.000	 33.000	 99.122	 -0.451
99423	  0.465	  0.249	  0.394	  0.038	 -0.002	 -9.733	 -0.003	  0.002	  0.000	 33.000	 99.126	 -0.813
99473	  0.463	  0.247	  0.391	  0.055	 -0.016	 -9.770	 -0.003	  0.004	  0.001	 33.000	 99.104	  1.184
99523	  0.465	  0.249	  0.394	  0.065	 -0.006	 -9.753	 -0.003	  0.002	 -0.000	 33.000	 99.111	  0.549
99573	  0.465	  0.245	  0.397	  0.050	 -0.023	 -9.770	 -0.004	  0.003	  0.001	 33.000	 99.126	 -0.813
99623	  0.464	  0.246	  0.392	  0.082	 -0.006	 -9.707	 -0.003	  0.003	  0.001	 33.000	 99.111	  0.549
99673	  0.465	  0.249	  0.397	  0.065	 -0.010	 -9.762	 -0.004	  0.003	  0.001	 33.000	 99.126	 -0.813
99723	  0.465	  0.248	  0.390	  0.087	 -0.026	 -9.777	 -0.002	  0.004	  0.002	 33.000	 99.115	  0.186
99773	  0.466	  0.254	  0.397	  0.067	  0.005	 -9.757	 -0.004	  0.002	  0.001	 33.000	 99.122	 -0.451
99823	  0.462	  0.249	  0.392	  0.068	 -0.006	 -9.781	 -0.003	  0.004	  0.000	 33.000	 99.126	 -0.813
99873	  0.465	  0.248	  0.392	  0.067	 -0.021	 -9.765	 -0.003	  0.003	  0.001	 33.000	 99.126	 -0.813
99923	  0.463	  0.247	  0.396	  0.092	 -0.007	 -9.765	 -0.003	  0.003	  0.000	 33.000	 99.111	  0.549
99973	  0.463	  0.246	  0.389	  0.052	 -0.021	 -9.751	 -0.003	  0.002	  0.002	 33.000	 99.111	  0.549
100023	  0.464	  0.248	  0.390	  0.035	 -0.039	 -9.751	 -0.004	  0.002	 -0.000	 33.000	 99.126	 -0.813
100073	  0.464	  0.247	  0.390	  0.070	 -0.030	 -9.751	 -0.003	  0.003	  0.000	 33.000	 99.122	 -0.451
100123	  0.463	  0.245	  0.398	  0.054	 -0.015	 -9.758	 -0.004	  0.003	  0.001	 33.000	 99.126	 -0.813
100173	  0.463	  0.247	  0.396	  0.073	 -0.004	 -9.779	 -0.003	  0.003	 -0.000	 33.000	 99.122	 -0.451
100223	  0.463	  0.249	  0.391	  0.055	 -0.001	 -9.739	 -0.003	  0.001	  0.000	 33.000	 99.126	 -0.813
100273	  0.463	  0.245	  0.397	  0.057	 -0.011	 -9.780	 -0.004	  0.002	  0.002	 33.000	 99.115	  0.186
100323	  0.465	  0.248	  0.392	  0.081	  0.006	 -9.749	 -0.004	  0.002	  0.000	 33.000	 99.111	  0.549
100373	  0.463	  0.247	  0.394	  0.040	 -0.006	 -9.764	 -0.003	  0.002	 -0.000	 33.000	 99.115	  0.186
100423	  0.463	  0.251	  0.392	  0.077	 -0.024	 -9.758	 -0.004	  0.003	 -0.001	 33.000	 99.126	 -0.813
100473	  0.465	  0.252	  0.394	  0.072	 -0.022	 -9.753	 -0.004	  0.004	  0.001	 33.000	 99.111	  0.549
100523	  0.465	  0.249	  0.390	  0.048	 -0.009	 -9.765	 -0.003	  0.002	  0.001	 33.000	 99.111	  0.549
100573	  0.464	  0.246	  0.393	  0.050	  0.010	 -9.775	 -0.004	  0.001	 -0.001	 33.000	 99.115	  0.186
100623	  0.463	  0.250	  0.393	  0.067	 -0.015	 -9.783	 -0.003	  0.003	  0.001	 33.000	 99.122	 -0.451
100673	  0.465	  0.249	  0.396	  0.049	 -0.006	 -9.721	 -0.003	  0.002	  0.000	 33.000	 99.115	  0.186
100723	  0.465	  0.251	  0.396	  0.095	 -0.021	 -9.750	 -0.004	  0.000	  0.001	 33.000	 99.126	 -0.813
100773	  0.464	  0.248	  0.394	  0.061	  0.005	 -9.760	 -0.004	  0.004	  0.002	 33.000	 99.126	 -0.813
100823	  0.465	  0.245	  0.393	  0.046	 -0.006	 -9.775	 -0.004	  0.001	  0.000	 33.000	 99.115	  0.186
100873	  0.461	  0.248	  0.394	  0.075	 -0.017	 -9.770	 -0.004	  0.004	  0.000	 33.000	 99.126	 -0.813
100923	  0.462	  0.247	  0.393	  0.053	 -0.015	 -9.776	 -0.003	  0.001	  0.000	 33.000	 99.122	 -0.451
100973	  0.463	  0.247	  0.393	  0.055	 -0.006	 -9.773	 -0.002	  0.002	 -0.000	 33.000	 99.104	  1.184
101023	  0.465	  0.248	  0.394	  0.091	 -0.018	 -9.734	 -0.004	  0.002	 -0.000	 33.000	 99.126	 -0.813
101073	  0.463	  0.253	  0.392	  0.074	 -0.006	 -9.778	 -0.004	  0.003	 -0.001	 33.000	 99.115	  0.186
101123	  0.465	  0.250	  0.397	  0.028	 -0.019	 -9.775	 -0.003	  0.002	  0.001	 33.000	 99.122	 -0.451
101173	  0.465	  0.254	  0.392	  0.058	 -0.024	 -9.789	 -0.003	  0.004	  0.001	 33.000	 99.126	 -0.813
101223	  0.464	  0.246	  0.391	  0.071	 -0.011	 -9.776	 -0.002	  0.001	 -0.001	 33.000	 99.126	 -0.813
101273	  0.461	  0.246	  0.392	  0.046	 -0.017	 -9.804	 -0.003	  0.003	 -0.000	 33.000	 99.122	 -0.451
101323	  0.465	  0.246	  0.396	  0.089	 -0.006	 -9.755	 -0.003	  0.004	  0.001	 33.000	 99.115	  0.186
101373	  0.464	  0.246	  0.394	  0.062	 -0.021	 -9.750	 -0.004	  0.003	  0.001	 33.000	 99.122	 -0.451
101423	  0.463	  0.252	  0.394	  0.039	 -0.002	 -9.769	 -0.002	  0.002	  0.000	 33.000	 99.115	  0.186
101473	  0.465	  0.248	  0.397	  0.060	 -0.003	 -9.780	 -0.004	  0.002	  0.000	 33.000	 99.115	  0.186
101523	  0.463	  0.248	  0.391	  0.057	 -0.013	 -9.772	 -0.003	  0.004	 -0.000	 33.000	 99.122	 -0.451
101573	  0.464	  0.249	  0.394	  0.055	 -0.011	 -9.794	 -0.004	  0.002	  0.001	 33.000	 99.115	  0.186
101623	  0.464	  0.249	  0.394	  0.074	 -0.006	 -9.776	 -0.003	  0.002	  0.001	 33.000	 99.126	 -0.813
101673	  0.462	  0.247	  0.398	  0.072	  0.012	 -9.785	 -0.003	  0.002	  0.001	 33.000	 99.115	  0.186
101723	  0.463	  0.248	  0.396	  0.065	 -0.001	 -9.748	 -0.003	  0.001	 -0.000	 33.000	 99.126	 -0.813
101773	  0.464	  0.251	  0.396	  0.059	 -0.027	 -9.770	 -0.002	  0.003	 -0.000	 33.000	 99.122	 -0.451
101823	  0.465	  0.254	  0.391	  0.050	 -0.009	 -9.762	 -0.004	  0.004	  0.001	 33.000	 99.126	 -0.813
101873	  0.465	  0.246	  0.389	  0.046	 -0.011	 -9.744	 -0.003	  0.003	 -0.000	 33.000	 99.104	  1.184
101923	  0.463	  0.248	  0.392	  0.061	 -0.021	 -9.756	 -0.003	  0.003	  0.000	 33.000	 99.111	  0.549
101973	  0.464	  0.245	  0.397	  0.073	  0.001	 -9.752	 -0.003	  0.003	 -0.000	 33.000	 99.115	  0.186
102023	  0.463	  0.245	  0.397	  0.069	 -0.021	 -9.757	 -0.003	  0.001	  0.000	 33.000	 99.115	  0.186
102073	  0.465	  0.248	  0.397	  0.068	 -0.003	 -9.746	 -0.004	  0.002	 -0.000	 33.000	 99.115	  0.186
102123	  0.466	  0.250	  0.394	  0.051	 -0.010	 -9.769	 -0.003	  0.004	 -0.000	 33.000	 99.115	  0.186
102174	  0.463	  0.246	  0.394	  0.044	 -0.021	 -9.765	 -0.003	  0.002	 -0.000	 33.000	 99.126	 -0.813
102222	  0.465	  0.243	  0.393	  0.050	 -0.019	 -9.790	 -0.004	  0.004	  0.002	 33.000	 99.122	 -0.451
102272	  0.462	  0.251	  0.393	  0.040	 -0.017	 -9.773	 -0.003	  0.001	  0.000	 33.000	 99.104	  1.184
102322	  0.462	  0.247	  0.397	  0.054	 -0.024	 -9.758	 -0.004	  0.002	 -0.000	 33.000	 99.126	 -0.813
102372	  0.463	  0.249	  0.397	  0.053	  0.011	 -9.762	 -0.004	  0.001	  0.000	 33.000	 99.126	 -0.813
102422	  0.466	  0.250	  0.394	  0.059	 -0.008	 -9.753	 -0.004	  0.003	  0.000	 33.000	 99.115	  0.186
102472	  0.462	  0.250	  0.393	  0.042	 -0.005	 -9.762	 -0.003	  0.001	  0.000	 33.000	 99.115	  0.186
102522	  0.465	  0.246	  0.397	  0.058	 -0.006	 -9.731	 -0.003	  0.002	  0.000	 33.000	 99.115	  0.186
102572	  0.465	  0.248	  0.394	  0.051	 -0.016	 -9.762	 -0.003	  0.003	 -0.000	 33.000	 99.104	  1.184
102623	  0.464	  0.246	  0.390	  0.040	 -0.007	 -9.768	 -0.003	  0.004	  0.001	 33.000	 99.115	  0.186
102672	  0.464	  0.248	  0.394	  0.071	 -0.031	 -9.788	 -0.003	  0.005	  0.000	 33.000	 99.126	 -0.813
102723	  0.465	  0.248	  0.392	  0.063	  0.000	 -9.777	 -0.003	  0.002	 -0.000	 33.000	 99.115	  0.186
102772	  0.465	  0.248	  0.396	  0.059	 -0.014	 -9.770	 -0.002	  0.003	  0.001	 33.000	 99.122	 -0.451
102823	  0.465	  0.247	  0.396	  0.064	  0.000	 -9.746	 -0.004	  0.003	  0.001	 33.000	 99.115	  0.186
102873	  0.464	  0.250	  0.393	  0.056	 -0.020	 -9.773	 -0.003	  0.002	  0.000	 33.000	 99.111	  0.549
102923	  0.465	  0.248	  0.394	  0.067	 -0.028	 -9.750	 -0.004	  0.002	  0.000	 33.000	 99.126	 -0.813
102973	  0.465	  0.245	  0.397	  0.049	 -0.018	 -9.737	 -0.002	  0.003	  0.000	 33.000	 99.115	  0.186
103023	  0.464	  0.245	  0.394	  0.065	 -0.011	 -9.766	 -0.003	  0.001	 -0.001	 33.000	 99.115	  0.186
103073	  0.464	  0.247	  0.393	  0.070	 -0.025	 -9.778	 -0.003	  0.004	 -0.001	 33.000	 99.126	 -0.813
103123	  0.464	  0.246	  0.391	  0.055	 -0.020	 -9.787	 -0.003	  0.004	  0.000	 33.000	 99.126	 -0.813
103173	  0.463	  0.248	  0.392	  0.061	 -0.015	 -9.775	 -0.004	  0.003	 -0.000	 33.000	 99.122	 -0.451
103223	  0.464	  0.249	  0.397	  0.070	 -0.026	 -9.757	 -0.004	  0.002	  0.001	 33.000	 99.126	 -0.813
103273	  0.464	  0.246	  0.390	  0.053	 -0.012	 -9.740	 -0.004	  0.001	  0.000	 33.000	 99.115	  0.186
103323	  0.463	  0.250	  0.397	  0.046	 -0.006	 -9.765	 -0.003	  0.001	  0.001	 33.000	 99.126	 -0.813
103373	  0.465	  0.247	  0.392	  0.068	 -0.006	 -9.774	 -0.003	  0.002	 -0.000	 33.000	 99.115	  0.186
103423	  0.465	  0.250	  0.394	  0.066	 -0.019	 -9.759	 -0.005	  0.002	  0.001	 33.000	 99.115	  0.186
103473	  0.465	  0.247	  0.392	  0.055	 -0.006	 -9.745	 -0.004	  0.002	  0.000	 33.000	 99.126	 -0.813
103523	  0.463	  0.243	  0.394	  0.069	  0.002	 -9.772	 -0.004	  0.002	  0.001	 33.000	 99.111	  0.549
103573	  0.465	  0.248	  0.393	  0.071	 -0.030	 -9.769	 -0.003	  0.002	  0.000	 33.000	 99.126	 -0.813
103623	  0.463	  0.245	  0.396	  0.065	 -0.019	 -9.760	 -0.004	  0.003	 -0.000	 33.000	 99.126	 -0.813
103673	  0.463	  0.247	  0.391	  0.057	 -0.026	 -9.797	 -0.004	  0.002	  0.001	 33.000	 99.126	 -0.813
103723	  0.464	  0.246	  0.393	  0.072	  0.009	 -9.753	 -0.005	  0.003	  0.000	 33.000	 99.115	  0.186
103773	  0.463	  0.246	  0.396	  0.061	 -0.024	 -9.772	 -0.003	  0.003	  0.000	 33.000	 99.111	  0.549
103823	  0.463	  0.245	  0.391	  0.059	 -0.028	 -9.783	 -0.003	  0.001	 -0.000	 33.000	 99.115	  0.186
103873	  0.464	  0.247	  0.391	  0.042	 -0.021	 -9.758	 -0.002	  0.003	  0.001	 33.000	 99.126	 -0.813
103923	  0.465	  0.247	  0.392	  0.063	 -0.017	 -9.741	 -0.002	  0.002	  0.000	 33.000	 99.111	  0.549
103973	  0.463	  0.250	  0.394	  0.064	 -0.015	 -9.788	 -0.004	  0.004	 -0.000	 33.000	 99.115	  0.186
104023	  0.463	  0.247	  0.393	  0.061	  0.005	 -9.765	 -0.002	  0.001	 -0.001	 33.000	 99.115	  0.186
104073	  0.464	  0.248	  0.393	  0.072	 -0.002	 -9.768	 -0.002	  0.001	  0.001	 33.000	 99.115	  0.186
104123	  0.464	  0.249	  0.396	  0.033	 -0.013	 -9.771	 -0.004	  0.000	 -0.000	 33.000	 99.126	 -0.813
104173	  0.467	  0.251	  0.398	  0.085	 -0.007	 -9.782	 -0.004	  0.002	  0.001	 33.000	 99.115	  0.186
104223	  0.465	  0.250	  0.397	  0.080	 -0.003	 -9.754	 -0.004	  0.001	  0.001	 33.000	 99.115	  0.186
104273	  0.465	  0.248	  0.392	  0.055	 -0.020	 -9.759	 -0.004	  0.003	  0.000	 33.000	 99.126	 -0.813
104323	  0.463	  0.246	  0.394	  0.069	 -0.006	 -9.778	 -0.003	  0.002	  0.001	 33.000	 99.126	 -0.813
104373	  0.462	  0.250	  0.395	  0.075	 -0.000	 -9.713	 -0.003	  0.004	  0.000	 33.000	 99.126	 -0.813
104423	  0.463	  0.247	  0.393	  0.050	 -0.024	 -9.769	 -0.004	  0.001	 -0.000	 33.000	 99.115	  0.186
104473	  0.462	  0.250	  0.392	  0.049	 -0.003	 -9.763	 -0.003	  0.002	  0.000	 33.000	 99.126	 -0.813
104523	  0.465	  0.249	  0.392	  0.087	  0.012	 -9.753	 -0.003	  0.002	 -0.000	 33.000	 99.104	  1.184
104573	  0.462	  0.252	  0.392	  0.081	 -0.001	 -9.751	 -0.005	  0.003	  0.001	 33.000	 99.115	  0.186
104623	  0.464	  0.247	  0.392	  0.054	 -0.015	 -9.752	 -0.003	  0.004	  0.000	 33.000	 99.126	 -0.813
104673	  0.465	  0.249	  0.391	  0.075	 -0.009	 -9.740	 -0.004	  0.001	  0.000	 33.000	 99.126	 -0.813
104723	  0.465	  0.245	  0.393	  0.051	 -0.005	 -9.767	 -0.003	  0.002	  0.001	 33.000	 99.115	  0.186
104773	  0.463	  0.248	  0.393	  0.052	 -0.001	 -9.757	 -0.003	  0.003	  0.001	 33.000	 99.111	  0.549
104823	  0.463	  0.252	  0.392	  0.065	 -0.011	 -9.761	 -0.004	  0.004	  0.001	 33.000	 99.115	  0.186
104873	  0.464	  0.250	  0.393	  0.065	 -0.021	 -9.771	 -0.005	  0.002	  0.000	 33.000	 99.115	  0.186
104923	  0.463	  0.248	  0.396	  0.088	 -0.024	 -9.757	 -0.003	  0.001	  0.000	 33.000	 99.126	 -0.813
104973	  0.463	  0.244	  0.394	  0.053	 -0.010	 -9.738	 -0.005	  0.001	  0.001	 33.000	 99.122	 -0.451
105023	  0.464	  0.249	  0.392	  0.041	  0.001	 -9.759	 -0.003	  0.004	  0.001	 33.000	 99.111	  0.549
105073	  0.467	  0.247	  0.393	  0.061	 -0.005	 -9.800	 -0.003	  0.001	  0.001	 33.000	 99.115	  0.186
105123	  0.462	  0.251	  0.389	  0.061	  0.001	 -9.734	 -0.003	  0.003	  0.001	 33.000	 99.115	  0.186
105173	  0.464	  0.250	  0.393	  0.064	 -0.024	 -9.746	 -0.003	  0.003	 -0.000	 33.000	 99.099	  1.638
105223	  0.466	  0.254	  0.390	  0.049	 -0.013	 -9.741	 -0.005	  0.003	  0.000	 33.000	 99.115	  0.186
105273	  0.465	  0.243	  0.394	  0.079	 -0.014	 -9.776	 -0.002	  0.002	 -0.000	 33.000	 99.126	 -0.813
105323	  0.463	  0.255	  0.394	  0.053	 -0.018	 -9.774	 -0.004	  0.002	  0.001	 33.000	 99.115	  0.186
105373	  0.465	  0.246	  0.396	  0.058	  0.006	 -9.788	 -0.003	  0.003	  0.001	 33.000	 99.115	  0.186
105423	  0.464	  0.246	  0.391	  0.065	  0.003	 -9.746	 -0.004	  0.002	  0.001	 33.000	 99.111	  0.549
105473	  0.466	  0.252	  0.396	  0.065	 -0.017	 -9.774	 -0.004	  0.002	  0.001	 33.000	 99.111	  0.549
105523	  0.465	  0.246	  0.392	  0.081	  0.017	 -9.746	 -0.003	  0.001	 -0.001	 33.000	 99.122	 -0.451
105573	  0.463	  0.250	  0.393	  0.053	 -0.010	 -9.779	 -0.004	  0.001	  0.000	 33.000	 99.115	  0.186
105623	  0.465	  0.248	  0.397	  0.057	 -0.000	 -9.747	 -0.005	  0.002	 -0.000	 33.000	 99.115	  0.186
105673	  0.463	  0.246	  0.393	  0.068	 -0.016	 -9.754	 -0.004	  0.001	  0.000	 33.000	 99.115	  0.186
105723	  0.462	  0.245	  0.392	  0.044	 -0.004	 -9.754	 -0.003	  0.001	  0.002	 33.000	 99.104	  1.184
105773	  0.463	  0.251	  0.391	  0.071	  0.017	 -9.756	 -0.004	  0.001	  0.000	 33.000	 99.115	  0.186
105823	  0.463	  0.248	  0.394	  0.079	 -0.028	 -9.759	 -0.003	  0.003	  0.001	 33.000	 99.104	  1.184
105873	  0.463	  0.246	  0.391	  0.067	 -0.024	 -9.766	 -0.004	  0.002	  0.000	 33.000	 99.115	  0.186
105923	  0.463	  0.244	  0.392	  0.047	  0.007	 -9.761	 -0.003	  0.002	  0.000	 33.000	 99.130	 -1.176
105973	  0.463	  0.248	  0.392	  0.082	 -0.022	 -9.809	 -0.002	  0.005	  0.000	 33.000	 99.115	  0.186
106023	  0.463	  0.248	  0.397	  0.056	  0.014	 -9.762	 -0.003	  0.002	  0.001	 33.000	 99.115	  0.186
106073	  0.463	  0.250	  0.397	  0.040	  0.014	 -9.778	 -0.003	  0.003	  0.000	 33.000	 99.115	  0.186
106123	  0.467	  0.247	  0.392	  0.064	 -0.018	 -9.777	 -0.003	  0.003	  0.000	 33.000	 99.115	  0.186
106173	  0.463	  0.248	  0.394	  0.075	  0.000	 -9.784	 -0.004	  0.003	  0.001	 33.000	 99.115	  0.186
106223	  0.462	  0.247	  0.390	  0.069	 -0.009	 -9.726	 -0.003	  0.001	  0.000	 33.000	 99.115	  0.186
106273	  0.465	  0.245	  0.394	  0.057	 -0.017	 -9.773	 -0.004	  0.002	 -0.000	 33.000	 99.115	  0.186
106323	  0.464	  0.247	  0.397	  0.067	 -0.013	 -9.737	 -0.003	  0.003	  0.000	 33.000	 99.115	  0.186
106373	  0.462	  0.246	  0.397	  0.060	 -0.010	 -9.798	 -0.004	  0.002	  0.001	 33.000	 99.115	  0.186
106423	  0.462	  0.248	  0.389	  0.085	 -0.012	 -9.755	 -0.003	  0.001	  0.002	 33.000	 99.115	  0.186
106473	  0.462	  0.250	  0.394	  0.067	 -0.025	 -9.734	 -0.003	  0.003	 -0.000	 33.000	 99.115	  0.186
106523	  0.465	  0.249	  0.391	  0.042	 -0.011	 -9.762	 -0.004	  0.004	  0.000	 33.000	 99.115	  0.186
106573	  0.465	  0.243	  0.393	  0.064	 -0.001	 -9.741	 -0.004	  0.003	  0.001	 33.000	 99.115	  0.186
106623	  0.463	  0.249	  0.393	  0.056	 -0.014	 -9.786	 -0.003	  0.003	 -0.000	 33.000	 99.115	  0.186
106673	  0.466	  0.249	  0.397	  0.053	 -0.026	 -9.768	 -0.003	  0.003	  0.000	 33.000	 99.115	  0.186
106723	  0.463	  0.248	  0.392	  0.065	  0.007	 -9.764	 -0.004	  0.004	 -0.000	 33.000	 99.104	  1.184
106773	  0.465	  0.248	  0.393	  0.046	 -0.000	 -9.769	 -0.003	  0.003	  0.001	 33.000	 99.126	 -0.813
106823	  0.463	  0.248	  0.392	  0.074	 -0.035	 -9.755	 -0.004	  0.003	  0.001	 33.000	 99.115	  0.186
106873	  0.463	  0.251	  0.394	  0.061	 -0.030	 -9.778	 -0.004	  0.002	  0.000	 33.000	 99.115	  0.186
106923	  0.463	  0.246	  0.391	  0.053	 -0.004	 -9.768	 -0.004	  0.002	 -0.000	 33.000	 99.115	  0.186
106973	  0.463	  0.249	  0.389	  0.049	  0.008	 -9.764	 -0.002	  0.004	 -0.000	 33.000	 99.115	  0.186
107023	  0.464	  0.246	  0.393	  0.069	 -0.009	 -9.750	 -0.003	  0.003	  0.000	 33.000	 99.115	  0.186
107073	  0.465	  0.248	  0.392	  0.070	  0.003	 -9.782	 -0.004	  0.001	  0.000	 33.000	 99.115	  0.186
107122	  0.467	  0.247	  0.394	  0.079	  0.015	 -9.773	 -0.003	  0.003	  0.001	 33.000	 99.115	  0.186
107172	  0.466	  0.249	  0.392	  0.061	 -0.007	 -9.765	 -0.004	  0.002	 -0.000	 33.000	 99.115	  0.186
107222	  0.463	  0.245	  0.391	  0.053	 -0.011	 -9.765	 -0.004	  0.002	  0.001	 33.000	 99.115	  0.186
107272	  0.463	  0.248	  0.394	  0.058	  0.009	 -9.741	 -0.002	  0.002	  0.001	 33.000	 99.115	  0.186
107322	  0.464	  0.247	  0.396	  0.025	 -0.016	 -9.761	 -0.003	  0.002	 -0.001	 33.000	 99.115	  0.186
107372	  0.465	  0.247	  0.393	  0.056	 -0.008	 -9.763	 -0.003	  0.004	 -0.001	 33.000	 99.115	  0.186
107422	  0.463	  0.246	  0.392	  0.036	 -0.036	 -9.774	 -0.002	  0.003	  0.001	 33.000	 99.115	  0.186
107472	  0.464	  0.246	  0.388	  0.058	 -0.007	 -9.762	 -0.003	  0.001	  0.000	 33.000	 99.115	  0.186
107523	  0.465	  0.251	  0.393	  0.047	  0.013	 -9.760	 -0.004	  0.002	 -0.000	 33.000	 99.126	 -0.813
107572	  0.462	  0.247	  0.393	  0.048	 -0.021	 -9.788	 -0.005	  0.003	  0.001	 33.000	 99.115	  0.186
107623	  0.465	  0.249	  0.389	  0.040	 -0.025	 -9.795	 -0.003	  0.002	  0.002	 33.000	 99.126	 -0.813
107672	  0.465	  0.247	  0.392	  0.051	 -0.006	 -9.787	 -0.004	  0.003	  0.001	 33.000	 99.115	  0.186
107722	  0.466	  0.250	  0.390	  0.069	 -0.002	 -9.791	 -0.003	  0.003	  0.001	 33.000	 99.115	  0.186
107772	  0.463	  0.246	  0.392	  0.065	 -0.013	 -9.765	 -0.004	  0.002	  0.000	 33.000	 99.126	 -0.813
107822	  0.463	  0.247	  0.392	  0.064	 -0.021	 -9.778	 -0.004	  0.002	  0.000	 33.000	 99.115	  0.186
107872	  0.467	  0.246	  0.396	  0.062	 -0.010	 -9.749	 -0.004	  0.003	  0.000	 33.000	 99.126	 -0.813
107922	  0.464	  0.247	  0.392	  0.059	 -0.027	 -9.749	 -0.004	  0.002	  0.001	 33.000	 99.115	  0.186
107972	  0.465	  0.248	  0.393	  0.067	  0.017	 -9.762	 -0.004	  0.003	  0.002	 33.000	 99.104	  1.184
108022	  0.463	  0.248	  0.392	  0.050	 -0.024	 -9.728	 -0.004	  0.003	  0.001	 33.000	 99.126	 -0.813
108072	  0.465	  0.249	  0.396	  0.057	 -0.008	 -9.745	 -0.003	  0.002	  0.000	 33.000	 99.126	 -0.813
108122	  0.467	  0.248	  0.397	  0.044	  0.009	 -9.734	 -0.004	  0.003	  0.000	 33.000	 99.126	 -0.813
108173	  0.465	  0.248	  0.394	  0.051	  0.003	 -9.777	 -0.004	  0.002	  0.000	 33.000	 99.115	  0.186
108222	  0.465	  0.248	  0.392	  0.067	 -0.023	 -9.755	 -0.003	  0.003	  0.001	 33.000	 99.115	  0.186
108273	  0.465	  0.248	  0.392	  0.068	 -0.013	 -9.749	 -0.004	  0.002	  0.001	 33.000	 99.115	  0.186
108323	  0.467	  0.251	  0.392	  0.042	 -0.011	 -9.762	 -0.003	  0.002	  0.001	 33.000	 99.115	  0.186
108373	  0.463	  0.249	  0.392	  0.064	 -0.032	 -9.742	 -0.004	  0.002	  0.000	 33.000	 99.115	  0.186
108423	  0.464	  0.247	  0.392	  0.057	 -0.007	 -9.754	 -0.004	  0.003	  0.002	 33.000	 99.115	  0.186
108473	  0.465	  0.247	  0.394	  0.025	 -0.007	 -9.771	 -0.003	  0.003	 -0.000	 33.000	 99.115	  0.186
108523	  0.465	  0.250	  0.392	  0.083	 -0.004	 -9.745	 -0.003	  0.004	  0.002	 33.000	 99.126	 -0.813
108573	  0.464	  0.248	  0.387	  0.071	 -0.003	 -9.751	 -0.004	  0.002	  0.001	 33.000	 99.111	  0.549
108623	  0.464	  0.254	  0.393	  0.063	 -0.015	 -9.780	 -0.003	  0.003	  0.002	 33.000	 99.126	 -0.813
108673	  0.466	  0.250	  0.390	  0.054	 -0.014	 -9.741	 -0.004	  0.001	  0.000	 33.000	 99.115	  0.186
108723	  0.464	  0.249	  0.392	  0.069	 -0.013	 -9.765	 -0.004	  0.002	  0.001	 33.000	 99.115	  0.186
108773	  0.464	  0.249	  0.393	  0.060	 -0.026	 -9.736	 -0.003	  0.003	  0.000	 33.000	 99.115	  0.186
108823	  0.464	  0.250	  0.391	  0.063	 -0.013	 -9.739	 -0.004	  0.003	  0.001	 33.000	 99.126	 -0.813
108873	  0.464	  0.246	  0.398	  0.077	  0.010	 -9.739	 -0.004	  0.003	  0.000	 33.000	 99.126	 -0.813
108923	  0.464	  0.251	  0.391	  0.058	 -0.022	 -9.785	 -0.003	  0.002	  0.001	 33.000	 99.115	  0.186
108973	  0.464	  0.252	  0.393	  0.066	 -0.007	 -9.780	 -0.003	  0.001	  0.001	 33.000	 99.111	  0.549
109023	  0.465	  0.248	  0.391	  0.057	 -0.003	 -9.773	 -0.004	  0.002	  0.000	 33.000	 99.115	  0.186
109073	  0.465	  0.246	  0.391	  0.030	 -0.011	 -9.778	 -0.003	  0.004	  0.001	 33.000	 99.115	  0.186
109123	  0.463	  0.248	  0.393	  0.043	 -0.026	 -9.754	 -0.004	  0.004	  0.000	 33.000	 99.115	  0.186
109173	  0.467	  0.247	  0.393	  0.063	  0.002	 -9.743	 -0.002	  0.003	  0.001	 33.000	 99.115	  0.186
109223	  0.465	  0.246	  0.392	  0.062	 -0.006	 -9.779	 -0.003	  0.003	  0.000	 33.000	 99.115	  0.186
109273	  0.462	  0.249	  0.390	  0.050	 -0.029	 -9.752	 -0.002	  0.004	  0.000	 33.000	 99.126	 -0.813
