Time	 MagX	 MagY	 MagZ	 AccelX	 AccelY	 AccelZ	 Yaw	 Pitch	 Roll	 Temperature	 Pressure	 Altitude
15570	  0.544	  0.131	  0.423	  0.205	  0.104	 -9.776	 -0.003	  0.002	  0.001	 31.700	 99.078	 -99999.000
15620	  0.545	  0.125	  0.426	  0.211	  0.125	 -9.736	 -0.003	  0.002	 -0.000	 31.700	 99.089	 -99999.000
15670	  0.545	  0.130	  0.426	  0.227	  0.122	 -9.748	 -0.003	  0.002	  0.000	 31.700	 99.078	 -99999.000
15719	  0.544	  0.126	  0.424	  0.229	  0.094	 -9.771	 -0.004	  0.003	  0.001	 31.700	 99.093	 -99999.000
15769	  0.545	  0.127	  0.429	  0.227	  0.099	 -9.747	 -0.004	  0.002	  0.001	 31.700	 99.089	 -99999.000
15820	  0.545	  0.126	  0.428	  0.213	  0.137	 -9.761	 -0.003	  0.002	  0.001	 31.700	 99.078	 -99999.000
15869	  0.545	  0.121	  0.426	  0.202	  0.107	 -9.787	 -0.003	  0.003	  0.001	 31.700	 99.078	 -99999.000
15919	  0.546	  0.126	  0.428	  0.227	  0.097	 -9.766	 -0.003	  0.002	  0.000	 31.700	 99.066	 -99999.000
15969	  0.544	  0.127	  0.422	  0.213	  0.119	 -9.752	 -0.003	  0.001	  0.001	 31.700	 99.089	 -99999.000
16019	  0.544	  0.124	  0.430	  0.226	  0.126	 -9.794	 -0.004	  0.003	  0.001	 31.700	 99.089	 -99999.000
16069	  0.544	  0.128	  0.428	  0.214	  0.110	 -9.745	 -0.004	  0.003	  0.000	 31.700	 99.066	 -99999.000
16119	  0.547	  0.125	  0.425	  0.208	  0.113	 -9.784	 -0.002	  0.003	  0.000	 31.700	 99.078	 -99999.000
16169	  0.543	  0.127	  0.424	  0.198	  0.107	 -9.803	 -0.004	  0.001	  0.001	 31.700	 99.089	 -99999.000
16219	  0.544	  0.131	  0.428	  0.231	  0.096	 -9.751	 -0.004	  0.003	  0.001	 31.700	 99.078	 -99999.000
16269	  0.544	  0.125	  0.426	  0.210	  0.125	 -9.752	 -0.005	  0.002	 -0.000	 31.700	 99.089	 -99999.000
16319	  0.545	  0.132	  0.425	  0.225	  0.101	 -9.774	 -0.003	  0.003	  0.000	 31.700	 99.078	 -99999.000
16369	  0.543	  0.128	  0.429	  0.237	  0.119	 -9.749	 -0.002	  0.002	  0.000	 31.700	 99.078	 -99999.000
16419	  0.545	  0.126	  0.428	  0.235	  0.120	 -9.758	 -0.003	  0.001	 -0.000	 31.700	 99.078	 -99999.000
16469	  0.546	  0.125	  0.428	  0.213	  0.103	 -9.746	 -0.004	  0.003	  0.000	 31.700	 99.089	 -99999.000
16519	  0.545	  0.131	  0.428	  0.221	  0.098	 -9.773	 -0.004	  0.003	 -0.001	 31.700	 99.089	 -99999.000
16569	  0.544	  0.127	  0.430	  0.219	  0.114	 -9.765	 -0.002	  0.004	  0.000	 31.700	 99.078	 -99999.000
16619	  0.545	  0.124	  0.429	  0.222	  0.086	 -9.783	 -0.003	  0.002	  0.001	 31.700	 99.078	 -99999.000
16669	  0.543	  0.125	  0.424	  0.227	  0.121	 -9.758	 -0.003	  0.003	  0.001	 31.700	 99.078	 -99999.000
16719	  0.543	  0.129	  0.428	  0.222	  0.116	 -9.770	 -0.004	  0.003	  0.000	 31.700	 99.066	 -99999.000
16769	  0.544	  0.127	  0.428	  0.195	  0.112	 -9.765	 -0.003	  0.003	  0.002	 31.700	 99.089	 -99999.000
16819	  0.545	  0.125	  0.428	  0.260	  0.116	 -9.762	 -0.004	  0.002	  0.000	 31.700	 99.089	 -99999.000
16869	  0.543	  0.130	  0.425	  0.228	  0.102	 -9.788	 -0.003	  0.002	  0.000	 31.700	 99.089	 -99999.000
16919	  0.542	  0.126	  0.424	  0.218	  0.116	 -9.755	 -0.003	  0.004	  0.001	 31.700	 99.078	 -99999.000
16969	  0.544	  0.127	  0.429	  0.230	  0.120	 -9.736	 -0.003	  0.003	  0.001	 31.700	 99.089	 -99999.000
17019	  0.546	  0.127	  0.428	  0.225	  0.128	 -9.757	 -0.004	  0.002	  0.000	 31.700	 99.082	 -99999.000
17069	  0.543	  0.124	  0.426	  0.207	  0.099	 -9.742	 -0.003	  0.003	  0.000	 31.700	 99.078	 -99999.000
17119	  0.544	  0.130	  0.428	  0.214	  0.122	 -9.767	 -0.004	  0.002	  0.000	 31.700	 99.089	 -99999.000
17169	  0.544	  0.128	  0.428	  0.250	  0.102	 -9.764	 -0.003	  0.003	  0.000	 31.700	 99.089	 -99999.000
17219	  0.542	  0.129	  0.426	  0.211	  0.115	 -9.770	 -0.003	  0.002	  0.001	 31.700	 99.078	 -99999.000
17269	  0.542	  0.126	  0.428	  0.225	  0.095	 -9.787	 -0.003	  0.004	  0.000	 31.700	 99.089	 -99999.000
17319	  0.543	  0.130	  0.426	  0.220	  0.116	 -9.761	 -0.004	  0.001	  0.002	 31.700	 99.078	 -99999.000
17369	  0.543	  0.124	  0.425	  0.219	  0.099	 -9.784	 -0.003	  0.003	  0.000	 31.700	 99.078	 -99999.000
17419	  0.542	  0.127	  0.424	  0.222	  0.126	 -9.760	 -0.004	  0.002	  0.001	 31.700	 99.078	 -99999.000
17469	  0.545	  0.127	  0.426	  0.204	  0.117	 -9.778	 -0.002	  0.002	  0.001	 31.700	 99.078	 -99999.000
17519	  0.544	  0.125	  0.428	  0.215	  0.109	 -9.763	 -0.004	  0.001	  0.000	 31.700	 99.078	 -99999.000
17569	  0.541	  0.127	  0.424	  0.221	  0.124	 -9.780	 -0.003	  0.003	  0.000	 31.700	 99.089	 -99999.000
17619	  0.545	  0.123	  0.426	  0.225	  0.088	 -9.750	 -0.004	  0.002	  0.001	 31.700	 99.078	 -99999.000
17669	  0.544	  0.125	  0.425	  0.193	  0.093	 -9.850	 -0.004	  0.005	  0.002	 31.700	 99.078	 -99999.000
17719	  0.544	  0.124	  0.426	  0.223	  0.094	 -9.703	 -0.001	  0.004	  0.001	 31.700	 99.078	 -99999.000
17769	  0.543	  0.127	  0.426	  0.212	  0.125	 -9.755	 -0.003	  0.001	  0.001	 31.700	 99.078	 -99999.000
17819	  0.544	  0.125	  0.429	  0.257	  0.104	 -9.754	 -0.004	  0.002	  0.001	 31.700	 99.078	 -99999.000
17869	  0.543	  0.131	  0.427	  0.225	  0.117	 -9.764	 -0.004	  0.002	 -0.001	 31.700	 99.078	 -99999.000
17919	  0.546	  0.126	  0.423	  0.248	  0.108	 -9.744	 -0.003	  0.003	  0.000	 31.700	 99.078	 -99999.000
17969	  0.543	  0.128	  0.428	  0.256	  0.081	 -9.749	 -0.001	  0.004	 -0.001	 31.700	 99.089	 -99999.000
18019	  0.546	  0.126	  0.431	  0.198	  0.134	 -9.747	 -0.004	  0.001	  0.001	 31.700	 99.089	 -99999.000
18069	  0.545	  0.125	  0.428	  0.241	  0.090	 -9.763	 -0.004	  0.002	 -0.000	 31.700	 99.089	 -99999.000
18119	  0.545	  0.123	  0.428	  0.246	  0.066	 -9.800	 -0.005	  0.001	 -0.000	 31.700	 99.089	 -99999.000
18169	  0.543	  0.125	  0.431	  0.230	  0.103	 -9.743	 -0.004	  0.002	  0.001	 31.700	 99.078	 -99999.000
18219	  0.544	  0.127	  0.426	  0.215	  0.110	 -9.759	 -0.003	  0.002	  0.001	 31.700	 99.078	 -99999.000
18269	  0.547	  0.128	  0.428	  0.228	  0.096	 -9.762	 -0.002	  0.001	 -0.002	 31.700	 99.093	 -99999.000
18319	  0.544	  0.126	  0.429	  0.204	  0.123	 -9.755	 -0.003	  0.002	 -0.002	 31.700	 99.078	 -99999.000
18369	  0.543	  0.124	  0.425	  0.220	  0.112	 -9.761	 -0.004	  0.002	  0.001	 31.700	 99.078	 -99999.000
18419	  0.546	  0.126	  0.430	  0.236	  0.116	 -9.751	 -0.003	  0.003	 -0.000	 31.700	 99.078	 -99999.000
18469	  0.547	  0.121	  0.426	  0.211	  0.110	 -9.745	 -0.002	  0.002	 -0.001	 31.700	 99.089	 -99999.000
18519	  0.544	  0.126	  0.430	  0.205	  0.117	 -9.756	 -0.002	  0.003	  0.001	 31.700	 99.078	 -99999.000
18569	  0.545	  0.125	  0.429	  0.247	  0.106	 -9.722	 -0.004	  0.002	  0.000	 31.700	 99.078	 -99999.000
18619	  0.545	  0.125	  0.430	  0.234	  0.099	 -9.730	 -0.003	  0.002	 -0.000	 31.700	 99.082	 -99999.000
18669	  0.545	  0.126	  0.430	  0.238	  0.103	 -9.760	 -0.004	  0.004	  0.000	 31.700	 99.082	 -99999.000
18719	  0.542	  0.125	  0.426	  0.225	  0.102	 -9.778	 -0.002	  0.003	 -0.000	 31.700	 99.089	 -99999.000
18770	  0.547	  0.122	  0.428	  0.215	  0.111	 -9.749	 -0.003	  0.002	 -0.000	 31.700	 99.066	 -99999.000
18819	  0.545	  0.131	  0.430	  0.236	  0.101	 -9.752	 -0.004	  0.003	 -0.001	 31.700	 99.078	 -99999.000
18870	  0.545	  0.123	  0.429	  0.224	  0.093	 -9.756	 -0.004	  0.003	  0.001	 31.700	 99.078	 -99999.000
18919	  0.543	  0.125	  0.430	  0.219	  0.106	 -9.738	 -0.005	  0.001	  0.001	 31.700	 99.078	 -99999.000
18970	  0.547	  0.125	  0.431	  0.228	  0.114	 -9.756	 -0.003	  0.003	  0.001	 31.700	 99.082	 -99999.000
19019	  0.545	  0.124	  0.424	  0.182	  0.114	 -9.768	 -0.003	  0.003	 -0.001	 31.700	 99.089	 -99999.000
19069	  0.545	  0.123	  0.434	  0.220	  0.106	 -9.739	 -0.002	  0.002	  0.001	 31.700	 99.078	 -99999.000
19119	  0.543	  0.126	  0.431	  0.226	  0.105	 -9.787	 -0.004	  0.002	 -0.000	 31.700	 99.082	 -99999.000
19169	  0.545	  0.129	  0.432	  0.222	  0.111	 -9.726	 -0.003	  0.002	  0.001	 31.700	 99.089	 -99999.000
19220	  0.546	  0.125	  0.429	  0.222	  0.099	 -9.765	 -0.003	  0.003	  0.000	 31.700	 99.082	 -99999.000
19269	  0.545	  0.128	  0.432	  0.223	  0.113	 -9.705	 -0.003	  0.003	  0.001	 31.700	 99.089	 -99999.000
19320	  0.544	  0.125	  0.431	  0.213	  0.087	 -9.771	 -0.003	  0.002	  0.001	 31.700	 99.078	 -99999.000
19369	  0.544	  0.126	  0.426	  0.224	  0.114	 -9.776	 -0.004	  0.002	 -0.000	 31.700	 99.089	 -99999.000
19419	  0.546	  0.125	  0.428	  0.216	  0.098	 -9.753	 -0.004	  0.002	  0.000	 31.700	 99.078	 -99999.000
19470	  0.544	  0.125	  0.424	  0.231	  0.107	 -9.775	 -0.005	  0.002	  0.000	 31.700	 99.078	 -99999.000
19520	  0.543	  0.126	  0.430	  0.205	  0.114	 -9.742	 -0.004	  0.003	  0.000	 31.700	 99.089	 -99999.000
19569	  0.544	  0.129	  0.429	  0.240	  0.084	 -9.742	 -0.003	  0.003	  0.001	 31.700	 99.078	 -99999.000
19620	  0.547	  0.132	  0.432	  0.217	  0.086	 -9.784	 -0.004	  0.002	  0.000	 31.700	 99.082	 -99999.000
19670	  0.546	  0.130	  0.430	  0.208	  0.097	 -9.796	 -0.002	  0.003	  0.000	 31.700	 99.093	 -99999.000
19720	  0.546	  0.129	  0.430	  0.226	  0.090	 -9.752	 -0.003	  0.002	  0.001	 31.700	 99.082	 -99999.000
19770	  0.548	  0.128	  0.428	  0.213	  0.110	 -9.760	 -0.004	  0.002	  0.000	 31.700	 99.078	 -99999.000
19820	  0.546	  0.128	  0.432	  0.222	  0.130	 -9.765	 -0.005	  0.001	  0.000	 31.700	 99.078	 -99999.000
19870	  0.547	  0.128	  0.432	  0.252	  0.108	 -9.751	 -0.003	  0.002	  0.000	 31.700	 99.093	 -99999.000
19920	  0.546	  0.124	  0.435	  0.211	  0.099	 -9.722	 -0.003	  0.003	  0.001	 31.700	 99.082	 -99999.000
19970	  0.546	  0.126	  0.433	  0.226	  0.108	 -9.745	 -0.004	  0.004	  0.000	 31.700	 99.082	 -99999.000
20020	  0.546	  0.124	  0.433	  0.237	  0.098	 -9.743	 -0.004	  0.002	  0.000	 31.700	 99.066	 -99999.000
20070	  0.545	  0.127	  0.430	  0.228	  0.106	 -9.733	 -0.004	  0.002	  0.002	 31.700	 99.078	 -99999.000
20120	  0.545	  0.127	  0.428	  0.212	  0.111	 -9.761	 -0.003	  0.001	  0.000	 31.700	 99.078	 -99999.000
20170	  0.547	  0.129	  0.433	  0.216	  0.094	 -9.762	 -0.002	  0.003	  0.000	 31.700	 99.089	 -99999.000
20220	  0.546	  0.128	  0.429	  0.217	  0.134	 -9.747	 -0.004	  0.003	  0.000	 31.700	 99.066	 -99999.000
20270	  0.546	  0.127	  0.432	  0.230	  0.080	 -9.769	 -0.003	  0.005	  0.001	 31.700	 99.082	 -99999.000
20320	  0.547	  0.126	  0.432	  0.219	  0.104	 -9.758	 -0.003	  0.002	  0.001	 31.700	 99.078	 -99999.000
20370	  0.547	  0.131	  0.428	  0.213	  0.094	 -9.755	 -0.005	  0.003	  0.001	 31.700	 99.078	 -99999.000
20420	  0.547	  0.127	  0.431	  0.224	  0.128	 -9.755	 -0.003	  0.001	  0.001	 31.700	 99.082	 -99999.000
20470	  0.548	  0.127	  0.433	  0.230	  0.108	 -9.768	 -0.004	  0.003	  0.001	 31.700	 99.078	 -99999.000
20520	  0.548	  0.130	  0.433	  0.212	  0.115	 -9.745	 -0.003	  0.002	  0.000	 31.700	 99.078	 -99999.000
20570	  0.546	  0.131	  0.428	  0.203	  0.114	 -9.740	 -0.004	  0.003	  0.001	 31.700	 99.082	 -99999.000
20620	  0.546	  0.131	  0.431	  0.238	  0.117	 -9.746	 -0.003	  0.002	  0.000	 31.700	 99.082	 -99999.000
20670	  0.546	  0.129	  0.433	  0.222	  0.126	 -9.773	 -0.003	  0.004	  0.001	 31.700	 99.078	 -99999.000
20720	  0.545	  0.131	  0.429	  0.233	  0.098	 -9.768	 -0.003	  0.000	 -0.000	 31.700	 99.089	 -99999.000
20770	  0.545	  0.125	  0.429	  0.228	  0.113	 -9.763	 -0.003	  0.002	 -0.001	 31.700	 99.089	 -99999.000
20820	  0.546	  0.130	  0.433	  0.223	  0.116	 -9.743	 -0.003	  0.003	  0.001	 31.700	 99.078	 -99999.000
20870	  0.546	  0.129	  0.425	  0.238	  0.111	 -9.747	 -0.002	  0.001	  0.001	 31.700	 99.089	 -99999.000
20920	  0.544	  0.128	  0.431	  0.238	  0.110	 -9.740	 -0.004	  0.003	  0.000	 31.700	 99.082	 -99999.000
20970	  0.545	  0.128	  0.430	  0.218	  0.113	 -9.744	 -0.003	  0.003	  0.001	 31.700	 99.089	 -99999.000
21020	  0.545	  0.127	  0.430	  0.211	  0.090	 -9.773	 -0.004	  0.003	  0.001	 31.700	 99.066	 -99999.000
21070	  0.544	  0.128	  0.426	  0.244	  0.128	 -9.731	 -0.004	  0.002	  0.001	 31.700	 99.082	 -99999.000
21120	  0.543	  0.128	  0.430	  0.218	  0.121	 -9.753	 -0.003	  0.002	 -0.000	 31.700	 99.093	 -99999.000
21170	  0.543	  0.127	  0.429	  0.214	  0.132	 -9.760	 -0.003	  0.003	  0.001	 31.700	 99.093	 -99999.000
21220	  0.544	  0.131	  0.429	  0.211	  0.116	 -9.789	 -0.003	  0.002	  0.000	 31.700	 99.082	 -99999.000
21270	  0.543	  0.127	  0.430	  0.203	  0.105	 -9.764	 -0.003	  0.002	  0.000	 31.700	 99.093	 -99999.000
21320	  0.547	  0.128	  0.430	  0.228	  0.107	 -9.769	 -0.003	  0.002	 -0.000	 31.700	 99.089	 -99999.000
21370	  0.546	  0.128	  0.430	  0.222	  0.110	 -9.732	 -0.004	  0.001	  0.001	 31.700	 99.078	 -99999.000
21420	  0.546	  0.128	  0.429	  0.222	  0.095	 -9.768	 -0.003	  0.002	  0.001	 31.700	 99.078	 -99999.000
21470	  0.546	  0.131	  0.430	  0.230	  0.120	 -9.754	 -0.003	  0.000	  0.001	 31.700	 99.082	 -99999.000
21520	  0.545	  0.126	  0.431	  0.213	  0.118	 -9.745	 -0.003	  0.002	  0.000	 31.700	 99.089	 -99999.000
27145	  0.548	  0.136	  0.429	  0.223	  0.118	 -9.768	 -0.003	  0.002	  0.001	 31.700	 99.082	 -0.004
27195	  0.549	  0.129	  0.429	  0.212	  0.089	 -9.760	 -0.003	  0.003	  0.001	 31.700	 99.093	 -0.999
27245	  0.549	  0.131	  0.426	  0.232	  0.122	 -9.746	 -0.004	  0.003	  0.000	 31.700	 99.070	  1.082
27295	  0.546	  0.130	  0.432	  0.233	  0.124	 -9.790	 -0.003	  0.001	  0.000	 31.700	 99.093	 -0.999
27345	  0.548	  0.133	  0.424	  0.204	  0.105	 -9.775	 -0.003	  0.005	  0.001	 31.700	 99.086	 -0.366
27395	  0.545	  0.129	  0.429	  0.227	  0.108	 -9.743	 -0.003	  0.002	  0.001	 31.700	 99.082	 -0.004
27445	  0.548	  0.132	  0.432	  0.222	  0.112	 -9.726	 -0.003	  0.003	 -0.000	 31.700	 99.082	 -0.004
27495	  0.546	  0.132	  0.425	  0.234	  0.108	 -9.723	 -0.004	  0.004	  0.001	 31.700	 99.082	 -0.004
27545	  0.549	  0.133	  0.432	  0.226	  0.142	 -9.755	 -0.004	  0.003	  0.001	 31.700	 99.082	 -0.004
27595	  0.546	  0.128	  0.425	  0.209	  0.122	 -9.730	 -0.003	  0.004	  0.001	 31.700	 99.093	 -0.999
27645	  0.548	  0.130	  0.426	  0.213	  0.101	 -9.779	 -0.004	  0.002	  0.001	 31.700	 99.070	  1.082
27695	  0.547	  0.132	  0.432	  0.212	  0.105	 -9.738	 -0.004	  0.001	 -0.000	 31.700	 99.093	 -0.999
27745	  0.548	  0.131	  0.427	  0.231	  0.114	 -9.752	 -0.003	  0.003	  0.000	 31.700	 99.082	 -0.004
27795	  0.549	  0.130	  0.429	  0.237	  0.116	 -9.742	 -0.003	  0.003	 -0.000	 31.700	 99.070	  1.082
27845	  0.547	  0.131	  0.429	  0.207	  0.102	 -9.768	 -0.004	  0.002	  0.001	 31.700	 99.097	 -1.362
27895	  0.547	  0.132	  0.433	  0.213	  0.131	 -9.754	 -0.003	  0.002	  0.001	 31.700	 99.082	 -0.004
27945	  0.547	  0.132	  0.426	  0.228	  0.118	 -9.743	 -0.003	  0.002	  0.001	 31.700	 99.082	 -0.004
27995	  0.546	  0.131	  0.426	  0.227	  0.089	 -9.736	 -0.003	  0.003	  0.001	 31.700	 99.082	 -0.004
28045	  0.547	  0.130	  0.427	  0.216	  0.107	 -9.751	 -0.003	  0.002	  0.000	 31.700	 99.097	 -1.362
28095	  0.551	  0.129	  0.429	  0.192	  0.112	 -9.770	 -0.004	  0.001	  0.000	 31.700	 99.070	  1.082
28145	  0.547	  0.132	  0.430	  0.236	  0.122	 -9.756	 -0.004	  0.002	  0.001	 31.700	 99.093	 -0.999
28195	  0.547	  0.133	  0.428	  0.226	  0.124	 -9.718	 -0.003	  0.003	  0.000	 31.700	 99.086	 -0.366
28245	  0.547	  0.136	  0.431	  0.201	  0.123	 -9.752	 -0.002	  0.002	 -0.001	 31.700	 99.082	 -0.004
28295	  0.546	  0.130	  0.430	  0.223	  0.122	 -9.731	 -0.003	  0.003	  0.001	 31.700	 99.082	 -0.004
28345	  0.546	  0.131	  0.434	  0.197	  0.113	 -9.762	 -0.003	  0.001	 -0.000	 31.700	 99.070	  1.082
28395	  0.545	  0.132	  0.431	  0.216	  0.123	 -9.796	 -0.004	  0.003	 -0.000	 31.700	 99.070	  1.082
28445	  0.548	  0.132	  0.429	  0.260	  0.119	 -9.773	 -0.004	  0.002	  0.001	 31.700	 99.082	 -0.004
28495	  0.546	  0.131	  0.426	  0.204	  0.097	 -9.768	 -0.003	  0.002	  0.000	 31.700	 99.082	 -0.004
28545	  0.545	  0.131	  0.431	  0.209	  0.090	 -9.728	 -0.002	  0.002	 -0.001	 31.700	 99.086	 -0.366
28595	  0.546	  0.130	  0.425	  0.221	  0.124	 -9.758	 -0.003	  0.001	  0.001	 31.700	 99.086	 -0.366
28645	  0.547	  0.130	  0.431	  0.230	  0.111	 -9.772	 -0.004	  0.002	  0.000	 31.700	 99.082	 -0.004
28695	  0.546	  0.133	  0.429	  0.220	  0.105	 -9.744	 -0.003	  0.002	  0.001	 31.700	 99.086	 -0.366
28745	  0.546	  0.134	  0.431	  0.205	  0.121	 -9.760	 -0.004	  0.002	 -0.000	 31.700	 99.086	 -0.366
28795	  0.549	  0.131	  0.430	  0.230	  0.088	 -9.744	 -0.004	  0.003	 -0.000	 31.700	 99.082	 -0.004
28845	  0.548	  0.129	  0.427	  0.209	  0.123	 -9.756	 -0.004	  0.004	  0.000	 31.700	 99.086	 -0.366
28895	  0.546	  0.131	  0.432	  0.233	  0.111	 -9.724	 -0.004	  0.004	 -0.000	 31.700	 99.082	 -0.004
28945	  0.548	  0.130	  0.428	  0.234	  0.107	 -9.773	 -0.004	  0.001	 -0.001	 31.700	 99.093	 -0.999
28995	  0.547	  0.129	  0.431	  0.206	  0.128	 -9.771	 -0.003	  0.002	  0.000	 31.700	 99.093	 -0.999
29045	  0.546	  0.131	  0.425	  0.220	  0.126	 -9.764	 -0.003	  0.001	  0.000	 31.700	 99.075	  0.630
29095	  0.548	  0.131	  0.432	  0.222	  0.115	 -9.760	 -0.003	  0.002	  0.001	 31.700	 99.082	 -0.004
29145	  0.545	  0.130	  0.429	  0.233	  0.116	 -9.768	 -0.002	  0.002	  0.000	 31.700	 99.082	 -0.004
29195	  0.548	  0.127	  0.423	  0.231	  0.101	 -9.750	 -0.003	  0.002	  0.000	 31.700	 99.093	 -0.999
29245	  0.549	  0.131	  0.427	  0.221	  0.125	 -9.744	 -0.004	  0.002	  0.001	 31.700	 99.082	 -0.004
29295	  0.549	  0.131	  0.430	  0.229	  0.078	 -9.744	 -0.004	  0.003	  0.001	 31.700	 99.082	 -0.004
29345	  0.548	  0.130	  0.429	  0.230	  0.066	 -9.738	  0.012	  0.012	 -0.002	 31.700	 99.086	 -0.366
29395	  0.547	  0.131	  0.425	  0.216	  0.129	 -9.746	 -0.000	  0.003	 -0.000	 31.700	 99.082	 -0.004
29445	  0.549	  0.128	  0.429	  0.202	  0.107	 -9.783	 -0.041	 -0.024	  0.010	 31.700	 99.082	 -0.004
29495	  0.546	  0.130	  0.426	 -0.039	  0.142	 -10.075	  0.009	  0.004	 -0.008	 31.700	 99.082	 -0.004
29546	  0.546	  0.130	  0.430	  0.246	  0.099	 -9.732	 -0.004	  0.000	 -0.001	 31.700	 99.086	 -0.366
29595	  0.548	  0.130	  0.428	  0.214	  0.119	 -9.761	 -0.002	  0.004	  0.000	 31.700	 99.086	 -0.366
29646	  0.546	  0.129	  0.425	  0.221	  0.099	 -9.758	 -0.005	  0.002	  0.001	 31.700	 99.082	 -0.004
29695	  0.547	  0.133	  0.425	  0.205	  0.103	 -9.766	 -0.002	  0.004	  0.002	 31.700	 99.082	 -0.004
29745	  0.547	  0.129	  0.432	  0.229	  0.089	 -9.773	 -0.003	  0.001	  0.001	 31.700	 99.086	 -0.366
29795	  0.547	  0.134	  0.428	  0.210	  0.131	 -9.727	 -0.006	  0.001	  0.000	 31.700	 99.082	 -0.004
29846	  0.548	  0.135	  0.429	  0.214	  0.133	 -9.756	 -0.002	  0.003	  0.001	 31.700	 99.093	 -0.999
29896	  0.547	  0.131	  0.430	  0.262	  0.061	 -9.753	  0.011	  0.013	 -0.016	 31.700	 99.086	 -0.366
29945	  0.548	  0.135	  0.427	  0.815	 -0.400	 -9.817	  0.112	  0.115	 -0.160	 31.700	 99.097	 -1.362
29996	  0.543	  0.149	  0.434	  0.156	 -0.062	 -9.694	 -0.038	 -0.035	 -0.369	 31.700	 99.082	 -0.004
30045	  0.545	  0.158	  0.430	 -0.348	 -0.071	 -9.783	 -0.041	  0.020	 -0.313	 31.700	 99.082	 -0.004
30095	  0.552	  0.165	  0.429	  0.206	  0.575	 -9.685	 -0.115	 -0.228	 -0.111	 31.700	 99.086	 -0.366
30145	  0.562	  0.170	  0.424	 -0.248	  0.131	 -9.760	  0.357	 -0.348	 -0.104	 31.700	 99.082	 -0.004
30195	  0.574	  0.177	  0.408	 -0.909	 -0.133	 -9.560	  0.116	 -0.413	 -0.005	 31.700	 99.082	 -0.004
30245	  0.584	  0.183	  0.395	 -1.019	  0.050	 -9.691	  0.092	 -0.389	  0.008	 31.700	 99.093	 -0.999
30295	  0.585	  0.186	  0.389	 -1.065	 -0.672	 -10.136	  0.092	 -0.009	 -0.080	 31.700	 99.086	 -0.366
30345	  0.575	  0.184	  0.388	 -0.678	 -0.089	 -9.391	  0.044	  0.013	 -0.008	 31.700	 99.075	  0.630
30395	  0.559	  0.184	  0.398	  0.890	 -0.567	 -10.404	 -0.433	  0.568	 -0.296	 31.700	 99.093	 -0.999
30445	  0.540	  0.188	  0.413	 -0.979	 -0.210	 -8.630	 -0.359	  0.241	 -0.435	 31.700	 99.097	 -1.362
30495	  0.543	  0.209	  0.409	  5.187	 -0.123	 -9.698	  0.561	 -0.323	 -1.018	 31.700	 99.086	 -0.366
30545	  0.565	  0.235	  0.394	  3.197	  0.693	 -10.097	  0.963	 -1.302	  0.130	 31.700	 99.082	 -0.004
30595	  0.606	  0.275	  0.329	 -3.155	 -0.163	 -11.514	  1.218	 -1.554	 -0.415	 31.700	 99.082	 -0.004
30645	  0.626	  0.271	  0.277	 -0.374	 -2.141	 -10.009	  0.920	 -0.376	  0.360	 31.700	 99.082	 -0.004
30695	  0.624	  0.271	  0.292	  1.154	 -4.500	 -12.918	 -0.933	  1.000	  0.026	 31.700	 99.082	 -0.004
30745	  0.603	  0.298	  0.320	 -4.456	  2.084	 -4.286	  0.693	 -0.516	 -0.668	 31.700	 99.086	 -0.366
30795	  0.623	  0.293	  0.269	  2.198	 -4.492	 -14.201	  1.452	 -0.722	  0.669	 31.700	 99.086	 -0.366
30845	  0.624	  0.285	  0.268	 -5.140	  1.214	 -4.312	 -0.202	  0.604	  0.020	 31.700	 99.075	  0.630
30895	  0.644	  0.259	  0.260	 -1.011	 -0.876	 -8.175	  0.593	 -0.218	  1.182	 31.700	 99.097	 -1.362
30945	  0.660	  0.225	  0.271	 -2.575	 -3.209	 -13.064	 -0.561	  0.527	  0.327	 31.700	 99.082	 -0.004
30995	  0.644	  0.221	  0.285	 -2.042	 -2.857	 -11.146	 -0.066	 -0.052	 -0.563	 31.700	 99.082	 -0.004
31045	  0.638	  0.243	  0.248	 -1.385	  0.392	 -7.124	  0.236	 -1.413	 -0.122	 31.700	 99.082	 -0.004
31095	  0.633	  0.216	  0.273	 -1.521	 -2.724	 -10.314	 -1.961	  1.465	  0.324	 31.700	 99.086	 -0.366
31145	  0.607	  0.223	  0.321	 -0.031	 -1.879	 -12.792	 -0.378	  0.432	 -1.090	 31.700	 99.082	 -0.004
31195	  0.612	  0.243	  0.288	 -4.183	  3.584	 -2.321	  1.878	 -2.137	  0.800	 31.700	 99.086	 -0.366
31245	  0.666	  0.207	  0.227	  1.461	 -8.996	 -14.685	 -0.302	  0.885	  0.368	 31.700	 99.082	 -0.004
31295	  0.638	  0.231	  0.284	 -2.701	 -0.231	 -8.271	  0.374	  0.478	 -0.356	 31.700	 99.093	 -0.999
31345	  0.634	  0.249	  0.285	 -1.369	 -2.554	 -10.402	  0.620	 -0.332	  0.317	 31.700	 99.082	 -0.004
31395	  0.658	  0.254	  0.226	 -3.472	 -1.060	 -8.659	  0.264	 -1.156	  0.510	 31.700	 99.082	 -0.004
31445	  0.651	  0.211	  0.270	 -1.704	 -4.815	 -13.123	 -1.971	  1.955	  0.246	 31.700	 99.086	 -0.366
31495	  0.619	  0.210	  0.310	  0.310	  0.944	 -3.842	  0.094	 -0.181	 -0.544	 31.700	 99.097	 -1.362
31545	  0.649	  0.196	  0.240	  0.428	 -2.621	 -7.684	  1.130	 -1.641	  0.417	 31.700	 99.075	  0.630
31595	  0.661	  0.180	  0.248	 -2.817	 -3.876	 -9.556	 -0.067	  1.681	 -0.521	 31.700	 99.082	 -0.004
31645	  0.648	  0.244	  0.253	  1.380	 -4.414	 -12.658	  0.997	  0.195	 -0.979	 31.700	 99.086	 -0.366
31695	  0.638	  0.280	  0.265	 -7.252	  0.992	 -7.006	  0.547	 -0.828	 -0.014	 31.700	 99.097	 -1.362
31745	  0.644	  0.273	  0.253	  1.276	 -4.402	 -14.492	 -1.387	  1.116	 -0.192	 31.700	 99.086	 -0.366
31795	  0.621	  0.268	  0.277	 -4.968	  3.616	 -4.900	  0.376	 -1.981	  0.662	 31.700	 99.086	 -0.366
31845	  0.677	  0.226	  0.186	  0.130	 -4.801	 -9.163	  0.804	 -1.058	  0.745	 31.700	 99.086	 -0.366
31895	  0.671	  0.202	  0.226	 -0.513	 -3.459	 -9.976	 -1.177	  2.565	 -0.398	 31.700	 99.086	 -0.366
31945	  0.655	  0.252	  0.232	 -2.104	 -3.076	 -11.211	  0.932	 -1.043	 -0.611	 31.700	 99.097	 -1.362
31995	  0.662	  0.259	  0.222	 -2.024	 -0.999	 -9.237	 -0.041	 -0.006	 -0.289	 31.700	 99.093	 -0.999
32045	  0.633	  0.242	  0.283	 -1.652	 -3.279	 -9.093	 -2.125	  1.397	 -0.002	 31.700	 99.075	  0.630
32095	  0.644	  0.253	  0.269	 -2.007	 -0.968	 -11.807	  0.021	 -1.225	 -0.281	 31.700	 99.086	 -0.366
32145	  0.650	  0.221	  0.264	 -2.418	  0.985	 -6.501	  0.415	 -0.537	  0.884	 31.700	 99.097	 -1.362
32195	  0.686	  0.206	  0.211	  2.077	 -7.462	 -13.216	  0.429	 -0.351	 -0.192	 31.700	 99.086	 -0.366
32245	  0.655	  0.243	  0.243	 -4.264	  0.457	 -8.384	 -0.390	  0.710	 -0.701	 31.700	 99.086	 -0.366
32295	  0.640	  0.280	  0.254	 -1.444	 -3.349	 -12.969	 -0.362	 -0.486	 -0.473	 31.700	 99.086	 -0.366
32345	  0.661	  0.255	  0.199	  0.378	  1.643	 -2.579	  1.516	 -1.701	  1.702	 31.700	 99.086	 -0.366
32395	  0.696	  0.168	  0.229	  0.341	 -7.112	 -16.332	 -2.423	  3.755	  0.077	 31.700	 99.086	 -0.366
32445	  0.636	  0.213	  0.299	 -5.410	 11.504	 -3.653	  1.596	 -0.568	 -0.107	 31.700	 99.075	  0.630
32495	  0.669	  0.221	  0.246	 -0.092	 -6.943	 -14.821	  0.991	 -1.530	 -0.269	 31.700	 99.086	 -0.366
32545	  0.676	  0.190	  0.241	  2.679	 -4.508	 -11.339	 -1.690	  0.647	  0.535	 31.700	 99.086	 -0.366
32595	  0.645	  0.195	  0.287	 -2.154	 -1.519	 -9.099	  0.006	  0.050	 -1.159	 31.700	 99.082	 -0.004
32645	  0.659	  0.229	  0.228	 -3.584	  1.144	 -7.982	  2.259	 -1.385	  0.743	 31.700	 99.093	 -0.999
32695	  0.674	  0.198	  0.230	 -0.951	 -9.582	 -15.411	 -3.606	  1.492	  0.176	 31.700	 99.086	 -0.366
32745	  0.623	  0.181	  0.319	 -4.814	  7.698	 -3.757	  0.118	 -0.704	 -0.334	 31.700	 99.086	 -0.366
32795	  0.663	  0.180	  0.202	  0.304	 -5.055	 -4.740	  3.451	 -1.766	  0.320	 31.700	 99.097	 -1.362
32845	  0.688	  0.165	  0.210	 -1.221	 -10.305	 -14.273	 -1.660	  1.748	 -0.063	 31.700	 99.097	 -1.362
32895	  0.653	  0.202	  0.251	 -2.271	  1.358	 -6.310	 -0.295	  0.423	 -0.768	 31.700	 99.086	 -0.366
32945	  0.650	  0.213	  0.257	 -5.004	 -2.554	 -13.148	  0.560	  0.919	  0.403	 31.700	 99.086	 -0.366
32995	  0.660	  0.200	  0.255	 -1.567	 -2.956	 -9.129	  0.066	 -0.218	  0.487	 31.700	 99.086	 -0.366
33045	  0.668	  0.191	  0.246	 -1.352	 -3.017	 -9.670	 -0.434	 -0.088	 -0.123	 31.700	 99.093	 -0.999
33095	  0.660	  0.199	  0.263	 -1.685	 -0.983	 -9.741	 -0.201	  0.212	 -0.287	 31.700	 99.086	 -0.366
33145	  0.654	  0.211	  0.269	 -1.528	 -1.665	 -9.136	 -0.149	  0.199	 -0.252	 31.700	 99.086	 -0.366
33195	  0.651	  0.224	  0.274	 -1.818	 -1.857	 -9.409	 -0.178	 -0.192	 -0.182	 31.700	 99.086	 -0.366
33245	  0.648	  0.230	  0.274	 -1.780	 -0.522	 -9.782	 -0.434	  0.066	  0.025	 31.700	 99.086	 -0.366
33295	  0.634	  0.220	  0.288	 -0.706	 -1.640	 -11.644	 -0.251	  0.724	  0.025	 31.700	 99.086	 -0.366
33345	  0.611	  0.264	  0.310	 -5.049	 -1.779	 -4.677	  1.069	 -0.393	 -1.115	 31.700	 99.086	 -0.366
33395	  0.618	  0.275	  0.275	  4.258	 -2.214	 -15.634	 -0.370	  0.987	  0.662	 31.700	 99.086	 -0.366
33445	  0.591	  0.226	  0.347	 -2.487	  1.583	 -8.245	 -0.252	 -0.229	  0.196	 31.700	 99.086	 -0.366
33495	  0.621	  0.230	  0.293	  1.836	 -1.913	 -14.586	  2.073	 -1.765	  0.470	 31.700	 99.093	 -0.999
33545	  0.658	  0.247	  0.225	 -5.914	  1.168	 -4.671	  0.327	 -1.106	  0.351	 31.700	 99.086	 -0.366
33595	  0.645	  0.210	  0.266	  0.099	 -6.080	 -21.882	 -2.864	  3.451	 -0.481	 31.700	 99.108	 -2.357
33645	  0.598	  0.248	  0.309	 -6.567	  8.219	  1.300	  2.091	 -1.902	  0.284	 31.700	 99.097	 -1.362
33695	  0.653	  0.250	  0.238	  3.938	 -9.889	 -15.316	 -0.933	  1.791	 -0.028	 31.700	 99.093	 -0.999
33745	  0.596	  0.222	  0.351	 -2.122	  2.487	 -12.096	 -1.339	  0.179	 -0.829	 31.700	 99.086	 -0.366
33795	  0.624	  0.213	  0.290	 -0.797	 -0.680	 -1.737	  2.827	 -3.222	  1.848	 31.700	 99.086	 -0.366
33845	  0.687	  0.153	  0.251	 -0.881	 -11.121	 -14.007	 -3.472	  1.855	 -0.211	 31.700	 99.086	 -0.366
33895	  0.618	  0.166	  0.363	 -4.239	  2.448	 -12.516	 -0.552	 -0.327	 -0.948	 31.700	 99.086	 -0.366
33945	  0.615	  0.186	  0.285	 -3.018	  5.630	  4.775	  3.201	 -2.700	  1.137	 31.700	 99.075	  0.630
33995	  0.654	  0.155	  0.208	  3.272	 -2.592	 -6.092	  1.241	  1.048	 -0.382	 31.700	 99.075	  0.630
34045	  0.631	  0.166	  0.277	 -3.871	 -4.631	 -12.645	 -2.342	  1.023	 -0.749	 31.700	 99.086	 -0.366
34094	  0.598	  0.168	  0.272	 -4.013	  8.068	 -5.784	  1.825	 -1.211	  0.309	 31.700	 99.097	 -1.362
34144	  0.650	  0.181	  0.205	  1.954	 -4.777	 -11.210	  1.814	  0.608	 -0.220	 31.700	 99.086	 -0.366
34194	  0.642	  0.175	  0.254	 -2.746	 -4.348	 -19.041	 -2.705	  1.585	  0.046	 31.700	 99.086	 -0.366
34244	  0.623	  0.133	  0.277	 -9.455	  3.346	 -3.196	 -0.554	 -1.308	  0.920	 31.700	 99.086	 -0.366
34294	  0.647	  0.121	  0.238	 -0.789	 -4.867	 -6.807	  0.430	 -0.217	 -0.458	 31.700	 99.086	 -0.366
34344	  0.641	  0.153	  0.284	 -1.044	  1.117	 -7.147	 -0.292	  1.692	 -0.525	 31.700	 99.086	 -0.366
34394	  0.648	  0.154	  0.311	 -5.702	 -3.755	 -11.135	  0.005	  0.451	 -0.029	 31.700	 99.090	 -0.728
34444	  0.648	  0.146	  0.314	 -0.717	 -0.897	 -9.934	 -0.400	 -0.784	  0.276	 31.700	 99.086	 -0.366
34494	  0.653	  0.130	  0.287	 -0.685	 -1.657	 -9.032	 -0.016	 -0.649	  0.160	 31.700	 99.086	 -0.366
34544	  0.650	  0.130	  0.283	 -1.477	 -0.973	 -9.216	  0.025	  0.241	  0.011	 31.700	 99.086	 -0.366
34594	  0.639	  0.135	  0.296	 -1.496	 -0.304	 -9.624	 -0.207	  0.360	  0.155	 31.700	 99.086	 -0.366
34644	  0.640	  0.116	  0.318	 -0.918	 -0.753	 -9.118	 -0.416	  0.272	  0.290	 31.700	 99.086	 -0.366
34694	  0.642	  0.102	  0.322	 -0.994	 -1.828	 -12.071	 -0.642	  0.111	  0.056	 31.700	 99.075	  0.630
34744	  0.644	  0.117	  0.307	 -2.832	 -0.987	 -11.746	  0.740	 -1.655	 -0.233	 31.700	 99.097	 -1.362
34794	  0.661	  0.166	  0.231	  2.273	  1.063	  3.925	  2.599	 -1.544	 -0.625	 31.700	 99.086	 -0.366
34844	  0.680	  0.182	  0.251	 -1.468	 -1.881	 -14.126	 -1.568	  2.602	 -0.094	 31.700	 99.086	 -0.366
34894	  0.637	  0.168	  0.333	 -5.320	  1.917	 -19.793	 -2.104	 -0.710	 -0.258	 31.700	 99.086	 -0.366
34944	  0.643	  0.103	  0.258	 -2.455	  5.734	 -0.219	  1.792	 -2.101	  2.100	 31.700	 99.075	  0.630
34995	  0.687	  0.098	  0.235	  2.069	 -6.150	 -5.782	  1.237	  2.445	 -1.063	 31.700	 99.075	  0.630
35044	  0.650	  0.181	  0.321	 -4.312	 -0.409	 -16.297	 -0.546	  0.678	 -0.881	 31.700	 99.086	 -0.366
35094	  0.658	  0.158	  0.273	 22.919	 -10.537	 -8.619	  0.834	 -1.225	  0.846	 31.700	 99.097	 -1.362
35144	  0.677	  0.137	  0.262	  3.761	 -7.457	 -9.856	 -1.041	  2.425	 -0.826	 31.700	 99.097	 -1.362
35194	  0.624	  0.176	  0.354	 -4.854	  1.582	 -11.845	 -0.909	  0.028	 -0.769	 31.700	 99.075	  0.630
35244	  0.644	  0.145	  0.302	 -7.271	  6.549	 -0.742	  0.977	 -1.182	  1.129	 31.700	 99.086	 -0.366
35294	  0.664	  0.143	  0.312	  5.044	 -6.325	 -5.931	 -0.273	  3.223	 -1.290	 31.700	 99.097	 -1.362
35344	  0.592	  0.151	  0.398	  0.068	 -5.519	 -7.800	 -1.065	 -0.831	 -0.488	 31.700	 99.086	 -0.366
35394	  0.623	  0.136	  0.314	 -13.944	  6.052	 -0.347	  0.592	 -2.862	  1.161	 31.700	 99.086	 -0.366
35445	  0.643	  0.126	  0.275	  2.144	 -3.218	 -3.515	  0.149	  1.493	 -0.596	 31.700	 99.086	 -0.366
35496	  0.606	  0.164	  0.362	 -2.324	  1.544	 -9.422	 -1.291	  0.597	 -0.373	 31.700	 99.086	 -0.366
35546	  0.635	  0.132	  0.319	 -0.999	 -0.803	 -14.776	  0.421	 -1.685	  1.036	 31.700	 99.086	 -0.366
35596	  0.638	  0.150	  0.295	  2.557	 -1.298	 -5.651	  1.017	  1.178	 -0.760	 31.700	 99.086	 -0.366
35646	  0.619	  0.176	  0.364	 -3.992	 -4.007	 -14.967	 -1.494	  1.248	 -0.463	 31.700	 99.097	 -1.362
35696	  0.617	  0.142	  0.371	 -4.433	  1.129	 -12.883	 -0.760	 -1.444	  0.827	 31.700	 99.086	 -0.366
35746	  0.632	  0.112	  0.321	  4.317	 -4.861	 -5.281	  0.898	 -0.556	  0.104	 31.700	 99.086	 -0.366
35796	  0.642	  0.142	  0.307	 -1.151	 -0.786	 -8.081	  1.048	  0.220	 -0.601	 31.700	 99.086	 -0.366
35846	  0.647	  0.173	  0.325	 -1.844	 -1.285	 -11.117	  0.200	  0.424	 -0.203	 31.700	 99.075	  0.630
35896	  0.646	  0.167	  0.343	 -1.187	 -1.823	 -10.764	 -0.619	  0.505	  0.145	 31.700	 99.086	 -0.366
35946	  0.636	  0.153	  0.363	 -1.180	 -1.388	 -9.455	 -0.275	  0.444	  0.120	 31.700	 99.082	 -0.004
35996	  0.639	  0.143	  0.365	 -0.697	 -1.009	 -9.990	 -0.137	 -0.252	  0.091	 31.700	 99.093	 -0.999
36046	  0.641	  0.131	  0.356	 -0.474	 -1.011	 -9.838	 -0.458	 -0.217	  0.201	 31.700	 99.086	 -0.366
36096	  0.643	  0.118	  0.352	 -0.648	 -0.582	 -9.174	 -0.614	 -0.114	  0.075	 31.700	 99.086	 -0.366
36146	  0.648	  0.110	  0.350	 -0.604	 -0.453	 -8.540	 -0.183	 -0.044	  0.011	 31.700	 99.086	 -0.366
36196	  0.650	  0.106	  0.353	 -0.533	 -0.957	 -9.557	  0.251	  0.115	 -0.221	 31.700	 99.086	 -0.366
36246	  0.657	  0.117	  0.362	 -1.120	 -1.575	 -10.723	  0.043	  0.872	 -0.111	 31.700	 99.086	 -0.366
36295	  0.633	  0.107	  0.391	 -0.854	 -0.210	 -9.536	 -0.499	  0.804	  0.056	 31.700	 99.097	 -1.362
36345	  0.623	  0.084	  0.418	  0.718	  0.019	 -9.553	 -0.771	  0.593	  0.181	 31.700	 99.097	 -1.362
36395	  0.620	  0.076	  0.424	  0.405	  0.267	 -9.075	  0.085	 -0.118	  0.007	 31.700	 99.097	 -1.362
36445	  0.618	  0.072	  0.419	  0.361	 -0.161	 -9.839	  0.029	  0.015	 -0.009	 31.700	 99.097	 -1.362
36495	  0.622	  0.075	  0.421	  0.391	 -0.257	 -9.789	 -0.049	 -0.015	  0.026	 31.700	 99.075	  0.630
36545	  0.621	  0.072	  0.421	  0.315	 -0.082	 -9.719	 -0.006	  0.001	  0.001	 31.700	 99.086	 -0.366
36595	  0.620	  0.075	  0.419	  0.318	 -0.073	 -9.784	 -0.005	  0.002	  0.001	 31.700	 99.086	 -0.366
36645	  0.621	  0.074	  0.422	  0.331	 -0.073	 -9.748	 -0.004	  0.002	 -0.000	 31.700	 99.086	 -0.366
36695	  0.622	  0.073	  0.421	  0.338	 -0.090	 -9.751	 -0.005	  0.003	  0.000	 31.700	 99.086	 -0.366
36745	  0.623	  0.076	  0.423	  0.321	 -0.062	 -9.744	 -0.003	  0.000	  0.001	 31.700	 99.090	 -0.728
36795	  0.622	  0.073	  0.423	  0.348	 -0.093	 -9.728	 -0.004	  0.002	  0.001	 31.700	 99.090	 -0.728
36845	  0.621	  0.076	  0.419	  0.344	 -0.069	 -9.787	 -0.004	  0.001	  0.000	 31.700	 99.086	 -0.366
36895	  0.622	  0.074	  0.423	  0.330	 -0.069	 -9.756	 -0.004	  0.003	  0.000	 31.700	 99.086	 -0.366
36945	  0.622	  0.072	  0.423	  0.315	 -0.069	 -9.772	 -0.005	  0.002	  0.000	 31.700	 99.086	 -0.366
36995	  0.621	  0.075	  0.424	  0.325	 -0.083	 -9.774	 -0.003	  0.002	 -0.001	 31.700	 99.086	 -0.366
37045	  0.620	  0.075	  0.419	  0.330	 -0.086	 -9.740	 -0.004	  0.002	  0.002	 31.700	 99.075	  0.630
37095	  0.618	  0.073	  0.424	  0.296	 -0.082	 -9.718	 -0.003	  0.002	  0.001	 31.700	 99.097	 -1.362
37145	  0.624	  0.073	  0.421	  0.335	 -0.100	 -9.747	 -0.003	  0.001	  0.002	 31.700	 99.086	 -0.366
37195	  0.621	  0.075	  0.421	  0.336	 -0.079	 -9.755	 -0.003	  0.003	  0.001	 31.700	 99.075	  0.630
37245	  0.619	  0.072	  0.424	  0.338	 -0.091	 -9.775	 -0.003	  0.001	  0.002	 31.700	 99.090	 -0.728
37295	  0.621	  0.078	  0.422	  0.349	 -0.095	 -9.744	 -0.003	  0.002	  0.000	 31.700	 99.097	 -1.362
37345	  0.623	  0.074	  0.425	  0.325	 -0.087	 -9.797	 -0.004	  0.004	  0.000	 31.700	 99.082	 -0.004
37395	  0.620	  0.074	  0.423	  0.323	 -0.067	 -9.775	 -0.003	  0.004	 -0.000	 31.700	 99.086	 -0.366
37445	  0.622	  0.073	  0.420	  0.322	 -0.068	 -9.746	 -0.005	  0.004	  0.001	 31.700	 99.086	 -0.366
37495	  0.620	  0.075	  0.419	  0.342	 -0.088	 -9.785	 -0.003	  0.003	 -0.000	 31.700	 99.086	 -0.366
37545	  0.620	  0.076	  0.424	  0.362	 -0.110	 -9.747	 -0.005	  0.003	  0.001	 31.700	 99.086	 -0.366
37595	  0.620	  0.076	  0.419	  0.301	 -0.070	 -9.722	  0.000	  0.003	  0.001	 31.700	 99.090	 -0.728
37645	  0.619	  0.079	  0.415	  0.341	 -0.081	 -9.774	 -0.006	  0.002	  0.001	 31.700	 99.090	 -0.728
37696	  0.621	  0.075	  0.421	  0.335	 -0.091	 -9.728	 -0.002	  0.003	  0.001	 31.700	 99.075	  0.630
37745	  0.625	  0.073	  0.419	  0.328	 -0.086	 -9.790	 -0.005	  0.002	  0.001	 31.700	 99.086	 -0.366
37795	  0.620	  0.074	  0.419	  0.310	 -0.090	 -9.779	 -0.002	  0.003	 -0.001	 31.700	 99.075	  0.630
37845	  0.621	  0.073	  0.423	  0.327	 -0.077	 -9.728	 -0.004	  0.003	  0.001	 31.700	 99.086	 -0.366
37895	  0.620	  0.072	  0.419	  0.339	 -0.097	 -9.767	 -0.004	  0.002	  0.001	 31.700	 99.101	 -1.723
37945	  0.622	  0.071	  0.417	  0.300	 -0.078	 -9.722	 -0.004	  0.002	  0.001	 31.700	 99.090	 -0.728
37995	  0.622	  0.074	  0.425	  0.322	 -0.093	 -9.756	 -0.004	  0.002	  0.001	 31.700	 99.086	 -0.366
38045	  0.622	  0.076	  0.425	  0.335	 -0.067	 -9.739	 -0.005	  0.002	  0.000	 31.700	 99.086	 -0.366
38095	  0.620	  0.070	  0.420	  0.336	 -0.072	 -9.732	 -0.002	  0.002	 -0.000	 31.700	 99.090	 -0.728
38145	  0.622	  0.074	  0.423	  0.328	 -0.076	 -9.742	 -0.004	  0.004	  0.002	 31.700	 99.086	 -0.366
38195	  0.621	  0.075	  0.424	  0.332	 -0.059	 -9.772	 -0.003	  0.002	  0.000	 31.700	 99.086	 -0.366
38245	  0.622	  0.077	  0.423	  0.299	 -0.088	 -9.740	 -0.004	  0.000	 -0.000	 31.700	 99.086	 -0.366
38295	  0.623	  0.074	  0.424	  0.328	 -0.116	 -9.774	 -0.003	  0.003	  0.000	 31.700	 99.090	 -0.728
38345	  0.622	  0.073	  0.421	  0.326	 -0.090	 -9.746	 -0.002	  0.003	  0.001	 31.700	 99.075	  0.630
38395	  0.622	  0.076	  0.421	  0.322	 -0.084	 -9.765	 -0.004	  0.002	  0.000	 31.700	 99.090	 -0.728
38445	  0.622	  0.072	  0.425	  0.330	 -0.088	 -9.769	 -0.005	  0.003	  0.000	 31.700	 99.090	 -0.728
38495	  0.623	  0.075	  0.425	  0.321	 -0.087	 -9.712	 -0.003	  0.002	  0.001	 31.700	 99.090	 -0.728
38545	  0.623	  0.074	  0.423	  0.331	 -0.068	 -9.757	 -0.003	  0.003	  0.001	 31.700	 99.086	 -0.366
38595	  0.624	  0.071	  0.422	  0.309	 -0.066	 -9.740	 -0.003	  0.003	  0.001	 31.700	 99.086	 -0.366
38645	  0.622	  0.076	  0.421	  0.330	 -0.071	 -9.765	 -0.004	  0.003	  0.000	 31.700	 99.101	 -1.723
38695	  0.622	  0.075	  0.424	  0.332	 -0.099	 -9.766	 -0.004	  0.002	  0.001	 31.700	 99.090	 -0.728
38745	  0.625	  0.073	  0.420	  0.327	 -0.081	 -9.769	 -0.004	  0.003	  0.001	 31.700	 99.075	  0.630
38795	  0.624	  0.071	  0.421	  0.353	 -0.072	 -9.737	 -0.003	  0.002	  0.000	 31.700	 99.086	 -0.366
38845	  0.624	  0.071	  0.419	  0.308	 -0.085	 -9.775	 -0.003	  0.001	  0.000	 31.700	 99.075	  0.630
38895	  0.625	  0.069	  0.420	  0.333	 -0.089	 -9.756	 -0.003	  0.003	 -0.000	 31.700	 99.086	 -0.366
38945	  0.623	  0.073	  0.421	  0.324	 -0.076	 -9.783	 -0.003	  0.002	 -0.000	 31.700	 99.079	  0.267
38995	  0.626	  0.074	  0.422	  0.321	 -0.090	 -9.746	 -0.003	  0.002	  0.001	 31.700	 99.090	 -0.728
39045	  0.625	  0.069	  0.421	  0.328	 -0.089	 -9.764	 -0.004	  0.002	 -0.000	 31.700	 99.090	 -0.728
39095	  0.625	  0.074	  0.424	  0.312	 -0.077	 -9.738	 -0.004	  0.002	  0.001	 31.700	 99.090	 -0.728
39145	  0.624	  0.077	  0.422	  0.320	 -0.092	 -9.757	 -0.003	  0.002	 -0.001	 31.700	 99.086	 -0.366
39195	  0.625	  0.074	  0.421	  0.326	 -0.057	 -9.776	 -0.003	  0.002	  0.001	 31.700	 99.086	 -0.366
39245	  0.625	  0.073	  0.422	  0.337	 -0.065	 -9.760	 -0.004	  0.004	  0.000	 31.700	 99.090	 -0.728
39295	  0.625	  0.072	  0.423	  0.314	 -0.088	 -9.790	 -0.003	  0.003	  0.001	 31.700	 99.086	 -0.366
39345	  0.625	  0.072	  0.426	  0.333	 -0.069	 -9.761	 -0.005	  0.003	  0.002	 31.700	 99.075	  0.630
39395	  0.626	  0.073	  0.424	  0.319	 -0.113	 -9.778	 -0.003	  0.003	 -0.002	 31.700	 99.086	 -0.366
39445	  0.628	  0.072	  0.424	  0.358	 -0.056	 -9.718	 -0.003	  0.003	  0.002	 31.700	 99.086	 -0.366
39495	  0.623	  0.075	  0.423	  0.316	 -0.066	 -9.798	 -0.003	  0.004	  0.000	 31.700	 99.090	 -0.728
39545	  0.625	  0.070	  0.422	  0.335	 -0.092	 -9.760	 -0.004	  0.002	  0.000	 31.700	 99.086	 -0.366
39595	  0.626	  0.072	  0.420	  0.343	 -0.043	 -9.733	 -0.005	  0.002	  0.002	 31.700	 99.086	 -0.366
39645	  0.625	  0.075	  0.421	  0.297	 -0.091	 -9.772	 -0.003	  0.002	 -0.000	 31.700	 99.086	 -0.366
39695	  0.627	  0.077	  0.427	  0.367	 -0.055	 -9.758	 -0.003	  0.003	  0.001	 31.700	 99.086	 -0.366
39745	  0.625	  0.080	  0.420	  0.307	 -0.077	 -9.762	 -0.004	  0.002	  0.000	 31.700	 99.086	 -0.366
39795	  0.626	  0.072	  0.427	  0.351	 -0.080	 -9.810	 -0.004	  0.004	 -0.000	 31.700	 99.090	 -0.728
39845	  0.623	  0.071	  0.416	  0.351	 -0.094	 -9.737	 -0.003	  0.002	 -0.000	 31.700	 99.090	 -0.728
39895	  0.623	  0.073	  0.428	  0.351	 -0.076	 -9.735	 -0.004	  0.003	  0.000	 31.700	 99.090	 -0.728
39945	  0.622	  0.073	  0.421	  0.319	 -0.063	 -9.753	 -0.003	  0.002	  0.001	 31.700	 99.079	  0.267
39995	  0.626	  0.073	  0.423	  0.312	 -0.076	 -9.755	 -0.003	  0.002	  0.000	 31.700	 99.090	 -0.728
40045	  0.624	  0.078	  0.421	  0.336	 -0.043	 -9.734	 -0.003	  0.000	  0.001	 31.700	 99.090	 -0.728
40095	  0.627	  0.073	  0.423	  0.324	 -0.102	 -9.744	 -0.005	  0.001	  0.001	 31.700	 99.090	 -0.728
40145	  0.625	  0.073	  0.424	  0.343	 -0.074	 -9.776	 -0.004	  0.003	  0.001	 31.700	 99.090	 -0.728
40195	  0.624	  0.071	  0.423	  0.342	 -0.086	 -9.755	 -0.003	  0.003	  0.000	 31.700	 99.075	  0.630
40245	  0.623	  0.074	  0.424	  0.309	 -0.089	 -9.769	 -0.002	  0.002	  0.001	 31.700	 99.090	 -0.728
40295	  0.623	  0.076	  0.419	  0.323	 -0.051	 -9.784	 -0.004	  0.004	  0.000	 31.700	 99.079	  0.267
40345	  0.623	  0.071	  0.426	  0.305	 -0.067	 -9.775	 -0.004	  0.005	  0.001	 31.700	 99.079	  0.267
40395	  0.625	  0.073	  0.421	  0.333	 -0.074	 -9.757	 -0.002	  0.001	  0.001	 31.700	 99.090	 -0.728
40445	  0.625	  0.071	  0.424	  0.327	 -0.073	 -9.720	 -0.003	  0.001	 -0.000	 31.700	 99.079	  0.267
40495	  0.624	  0.071	  0.420	  0.318	 -0.078	 -9.764	 -0.004	  0.003	  0.001	 31.700	 99.079	  0.267
40545	  0.628	  0.080	  0.423	  0.334	 -0.076	 -9.753	 -0.004	  0.003	  0.000	 31.700	 99.090	 -0.728
40595	  0.625	  0.076	  0.423	  0.342	 -0.064	 -9.779	 -0.004	  0.003	 -0.001	 31.700	 99.086	 -0.366
40645	  0.623	  0.074	  0.422	  0.306	 -0.075	 -9.733	 -0.003	  0.003	  0.001	 31.700	 99.086	 -0.366
40696	  0.623	  0.072	  0.421	  0.312	 -0.072	 -9.779	 -0.004	  0.003	 -0.000	 31.700	 99.090	 -0.728
40745	  0.626	  0.074	  0.426	  0.358	 -0.065	 -9.757	 -0.004	  0.002	  0.001	 31.700	 99.090	 -0.728
40795	  0.623	  0.071	  0.417	  0.335	 -0.069	 -9.773	 -0.004	  0.003	  0.000	 31.700	 99.090	 -0.728
40845	  0.626	  0.075	  0.423	  0.321	 -0.065	 -9.759	 -0.003	  0.002	  0.000	 31.700	 99.075	  0.630
40895	  0.624	  0.071	  0.423	  0.324	 -0.070	 -9.730	 -0.003	  0.002	  0.000	 31.700	 99.090	 -0.728
40945	  0.625	  0.072	  0.422	  0.347	 -0.093	 -9.748	 -0.003	  0.001	  0.002	 31.700	 99.090	 -0.728
40995	  0.625	  0.072	  0.421	  0.315	 -0.081	 -9.739	 -0.004	  0.003	  0.001	 31.700	 99.090	 -0.728
41046	  0.625	  0.076	  0.423	  0.336	 -0.078	 -9.744	 -0.002	  0.002	 -0.000	 31.700	 99.079	  0.267
41096	  0.625	  0.073	  0.419	  0.323	 -0.046	 -9.770	 -0.004	  0.002	  0.001	 31.700	 99.101	 -1.723
41146	  0.625	  0.078	  0.422	  0.329	 -0.071	 -9.752	 -0.003	  0.002	 -0.001	 31.700	 99.101	 -1.723
41196	  0.625	  0.072	  0.423	  0.334	 -0.063	 -9.713	 -0.003	  0.003	  0.001	 31.700	 99.090	 -0.728
41246	  0.628	  0.076	  0.426	  0.342	 -0.062	 -9.769	 -0.003	  0.003	  0.001	 31.700	 99.079	  0.267
41296	  0.625	  0.075	  0.421	  0.322	 -0.074	 -9.766	 -0.005	  0.000	  0.000	 31.700	 99.086	 -0.366
41346	  0.624	  0.071	  0.421	  0.312	 -0.093	 -9.755	 -0.002	  0.004	  0.001	 31.700	 99.097	 -1.362
41396	  0.626	  0.073	  0.422	  0.323	 -0.075	 -9.777	 -0.004	  0.001	  0.000	 31.700	 99.090	 -0.728
41446	  0.625	  0.071	  0.426	  0.326	 -0.071	 -9.777	 -0.004	  0.001	 -0.000	 31.700	 99.086	 -0.366
41496	  0.625	  0.070	  0.420	  0.306	 -0.079	 -9.783	 -0.003	  0.002	  0.001	 31.700	 99.090	 -0.728
41546	  0.624	  0.072	  0.424	  0.322	 -0.074	 -9.740	 -0.004	  0.002	  0.000	 31.700	 99.090	 -0.728
41596	  0.626	  0.072	  0.423	  0.304	 -0.082	 -9.763	 -0.003	  0.003	 -0.000	 31.700	 99.090	 -0.728
41646	  0.623	  0.072	  0.421	  0.329	 -0.068	 -9.783	 -0.003	  0.001	 -0.000	 31.700	 99.079	  0.267
41696	  0.625	  0.076	  0.424	  0.327	 -0.074	 -9.737	 -0.004	  0.003	  0.001	 31.700	 99.086	 -0.366
41746	  0.626	  0.070	  0.424	  0.349	 -0.071	 -9.766	 -0.003	  0.002	  0.000	 31.700	 99.079	  0.267
41796	  0.625	  0.074	  0.424	  0.318	 -0.066	 -9.754	 -0.005	  0.003	  0.000	 31.700	 99.086	 -0.366
41846	  0.624	  0.074	  0.424	  0.321	 -0.072	 -9.737	 -0.002	  0.002	  0.001	 31.700	 99.090	 -0.728
41896	  0.624	  0.071	  0.419	  0.314	 -0.100	 -9.763	 -0.004	  0.002	  0.001	 31.700	 99.079	  0.267
41946	  0.626	  0.072	  0.423	  0.341	 -0.063	 -9.770	 -0.002	  0.003	 -0.001	 31.700	 99.090	 -0.728
41996	  0.626	  0.076	  0.426	  0.344	 -0.079	 -9.769	 -0.004	  0.001	  0.000	 31.700	 99.086	 -0.366
42045	  0.626	  0.074	  0.422	  0.320	 -0.083	 -9.791	 -0.004	  0.002	 -0.000	 31.700	 99.086	 -0.366
42095	  0.624	  0.070	  0.425	  0.321	 -0.078	 -9.746	 -0.003	  0.002	  0.001	 31.700	 99.090	 -0.728
42145	  0.626	  0.079	  0.422	  0.350	 -0.083	 -9.745	 -0.002	  0.004	  0.000	 31.700	 99.090	 -0.728
42195	  0.621	  0.076	  0.422	  0.325	 -0.070	 -9.763	 -0.004	  0.003	  0.001	 31.700	 99.079	  0.267
42245	  0.625	  0.073	  0.420	  0.326	 -0.060	 -9.763	 -0.003	  0.002	  0.001	 31.700	 99.101	 -1.723
42295	  0.625	  0.075	  0.422	  0.329	 -0.072	 -9.752	 -0.004	  0.002	  0.001	 31.700	 99.086	 -0.366
42345	  0.626	  0.072	  0.423	  0.340	 -0.088	 -9.788	 -0.003	  0.003	  0.001	 31.700	 99.090	 -0.728
42395	  0.626	  0.076	  0.423	  0.314	 -0.075	 -9.763	 -0.004	  0.003	 -0.000	 31.700	 99.079	  0.267
42445	  0.623	  0.073	  0.423	  0.321	 -0.069	 -9.737	 -0.004	  0.003	  0.001	 31.700	 99.101	 -1.723
42495	  0.626	  0.073	  0.420	  0.320	 -0.083	 -9.734	 -0.003	  0.001	  0.001	 31.700	 99.079	  0.267
42545	  0.625	  0.073	  0.423	  0.322	 -0.080	 -9.785	 -0.003	  0.004	 -0.000	 31.700	 99.090	 -0.728
42595	  0.626	  0.071	  0.419	  0.331	 -0.047	 -9.776	 -0.003	  0.003	  0.001	 31.700	 99.090	 -0.728
42645	  0.626	  0.078	  0.424	  0.287	 -0.098	 -9.772	 -0.004	  0.003	 -0.000	 31.700	 99.079	  0.267
42695	  0.626	  0.079	  0.420	  0.361	 -0.095	 -9.736	 -0.004	  0.003	  0.000	 31.700	 99.090	 -0.728
42745	  0.624	  0.072	  0.417	  0.319	 -0.047	 -9.774	 -0.003	  0.002	  0.001	 31.700	 99.086	 -0.366
42795	  0.625	  0.072	  0.423	  0.330	 -0.105	 -9.743	 -0.003	  0.003	  0.000	 31.700	 99.090	 -0.728
42845	  0.624	  0.071	  0.415	  0.323	 -0.034	 -9.766	 -0.004	  0.002	  0.001	 31.700	 99.079	  0.267
42895	  0.624	  0.076	  0.429	  0.307	 -0.092	 -9.753	 -0.003	  0.002	  0.000	 31.700	 99.086	 -0.366
42945	  0.625	  0.073	  0.421	  0.333	 -0.055	 -9.729	 -0.003	  0.001	  0.002	 31.700	 99.090	 -0.728
42995	  0.626	  0.073	  0.419	  0.315	 -0.077	 -9.716	 -0.005	  0.002	 -0.000	 31.700	 99.086	 -0.366
43045	  0.623	  0.074	  0.420	  0.339	 -0.087	 -9.741	 -0.003	  0.003	  0.000	 31.700	 99.090	 -0.728
43095	  0.626	  0.077	  0.424	  0.348	 -0.059	 -9.767	 -0.004	  0.003	  0.001	 31.700	 99.090	 -0.728
43145	  0.623	  0.074	  0.422	  0.309	 -0.084	 -9.767	 -0.003	  0.004	 -0.000	 31.700	 99.079	  0.267
43195	  0.622	  0.068	  0.421	  0.325	 -0.036	 -9.779	 -0.004	  0.002	 -0.001	 31.700	 99.090	 -0.728
43245	  0.626	  0.073	  0.421	  0.325	 -0.078	 -9.723	 -0.004	  0.001	  0.000	 31.700	 99.079	  0.267
43295	  0.626	  0.077	  0.422	  0.309	 -0.086	 -9.773	 -0.004	  0.003	  0.001	 31.700	 99.090	 -0.728
43345	  0.625	  0.077	  0.425	  0.340	 -0.070	 -9.748	 -0.003	  0.003	  0.000	 31.700	 99.079	  0.267
43395	  0.624	  0.073	  0.423	  0.301	 -0.098	 -9.736	 -0.003	  0.002	  0.000	 31.700	 99.079	  0.267
43445	  0.623	  0.072	  0.424	  0.329	 -0.064	 -9.785	 -0.002	  0.002	 -0.000	 31.700	 99.090	 -0.728
43495	  0.622	  0.074	  0.421	  0.324	 -0.097	 -9.790	 -0.004	  0.003	  0.000	 31.700	 99.079	  0.267
43545	  0.624	  0.072	  0.422	  0.331	 -0.085	 -9.755	 -0.003	  0.001	 -0.000	 31.700	 99.090	 -0.728
43595	  0.623	  0.076	  0.421	  0.338	 -0.071	 -9.738	 -0.004	  0.003	  0.001	 31.700	 99.090	 -0.728
43645	  0.624	  0.074	  0.424	  0.347	 -0.069	 -9.729	 -0.005	  0.002	  0.001	 31.700	 99.090	 -0.728
43695	  0.623	  0.072	  0.422	  0.335	 -0.089	 -9.784	 -0.004	  0.002	 -0.000	 31.700	 99.079	  0.267
43745	  0.625	  0.075	  0.421	  0.339	 -0.066	 -9.793	 -0.003	  0.003	  0.001	 31.700	 99.079	  0.267
43795	  0.625	  0.070	  0.421	  0.326	 -0.096	 -9.738	 -0.003	  0.003	  0.000	 31.700	 99.086	 -0.366
43845	  0.624	  0.077	  0.423	  0.334	 -0.059	 -9.761	 -0.002	  0.002	 -0.000	 31.700	 99.090	 -0.728
43895	  0.623	  0.073	  0.421	  0.314	 -0.082	 -9.732	 -0.003	  0.003	  0.001	 31.700	 99.090	 -0.728
43945	  0.625	  0.078	  0.422	  0.334	 -0.064	 -9.783	 -0.004	  0.003	  0.000	 31.700	 99.090	 -0.728
43995	  0.624	  0.073	  0.423	  0.319	 -0.083	 -9.779	 -0.003	  0.002	  0.001	 31.700	 99.079	  0.267
44045	  0.623	  0.075	  0.424	  0.347	 -0.084	 -9.777	 -0.003	  0.005	  0.001	 31.700	 99.090	 -0.728
44095	  0.625	  0.072	  0.421	  0.359	 -0.080	 -9.767	 -0.003	  0.002	  0.001	 31.700	 99.090	 -0.728
44145	  0.624	  0.072	  0.422	  0.312	 -0.095	 -9.754	 -0.003	  0.003	  0.002	 31.700	 99.090	 -0.728
44195	  0.626	  0.073	  0.421	  0.327	 -0.072	 -9.716	 -0.002	  0.003	  0.000	 31.700	 99.094	 -1.090
44245	  0.625	  0.078	  0.420	  0.310	 -0.053	 -9.742	 -0.004	  0.001	 -0.001	 31.700	 99.090	 -0.728
44295	  0.625	  0.073	  0.421	  0.329	 -0.077	 -9.744	 -0.003	  0.002	  0.001	 31.700	 99.090	 -0.728
44345	  0.624	  0.069	  0.422	  0.300	 -0.064	 -9.744	 -0.003	  0.003	 -0.001	 31.700	 99.086	 -0.366
44395	  0.624	  0.073	  0.420	  0.328	 -0.053	 -9.787	 -0.003	  0.003	  0.001	 31.700	 99.079	  0.267
44445	  0.624	  0.077	  0.424	  0.346	 -0.081	 -9.749	 -0.003	  0.001	 -0.001	 31.700	 99.090	 -0.728
44495	  0.625	  0.074	  0.427	  0.309	 -0.065	 -9.738	 -0.004	  0.003	  0.001	 31.700	 99.090	 -0.728
44545	  0.623	  0.071	  0.423	  0.324	 -0.059	 -9.751	 -0.004	  0.002	 -0.000	 31.700	 99.086	 -0.366
44595	  0.625	  0.072	  0.421	  0.314	 -0.081	 -9.747	 -0.004	  0.002	  0.000	 31.700	 99.079	  0.267
44645	  0.621	  0.077	  0.418	  0.338	 -0.066	 -9.785	 -0.002	  0.002	  0.001	 31.700	 99.090	 -0.728
44695	  0.624	  0.073	  0.424	  0.352	 -0.080	 -9.776	 -0.004	  0.001	  0.001	 31.700	 99.090	 -0.728
44745	  0.625	  0.071	  0.417	  0.346	 -0.083	 -9.766	 -0.004	  0.002	 -0.000	 31.700	 99.079	  0.267
44795	  0.624	  0.078	  0.424	  0.316	 -0.074	 -9.773	 -0.003	  0.003	 -0.001	 31.700	 99.090	 -0.728
44845	  0.626	  0.071	  0.422	  0.305	 -0.090	 -9.744	 -0.004	  0.001	  0.000	 31.700	 99.090	 -0.728
44895	  0.624	  0.075	  0.422	  0.340	 -0.082	 -9.774	 -0.004	  0.002	  0.001	 31.700	 99.090	 -0.728
44945	  0.625	  0.072	  0.419	  0.348	 -0.069	 -9.750	 -0.003	  0.001	 -0.000	 31.700	 99.101	 -1.723
44995	  0.624	  0.074	  0.424	  0.322	 -0.068	 -9.758	 -0.004	  0.001	  0.000	 31.700	 99.090	 -0.728
45045	  0.623	  0.074	  0.423	  0.342	 -0.071	 -9.747	 -0.004	  0.001	  0.001	 31.700	 99.090	 -0.728
45095	  0.624	  0.072	  0.423	  0.338	 -0.085	 -9.747	 -0.002	  0.003	 -0.001	 31.700	 99.090	 -0.728
45145	  0.626	  0.078	  0.419	  0.330	 -0.071	 -9.766	 -0.004	  0.001	  0.000	 31.700	 99.101	 -1.723
45195	  0.624	  0.075	  0.422	  0.332	 -0.053	 -9.725	 -0.004	  0.003	  0.001	 31.700	 99.083	 -0.094
45245	  0.623	  0.073	  0.423	  0.343	 -0.084	 -9.744	 -0.003	  0.002	  0.001	 31.700	 99.090	 -0.728
45295	  0.623	  0.069	  0.422	  0.340	 -0.072	 -9.779	 -0.004	  0.001	  0.000	 31.700	 99.090	 -0.728
45345	  0.625	  0.072	  0.423	  0.287	 -0.068	 -9.751	 -0.003	  0.002	  0.001	 31.700	 99.090	 -0.728
45395	  0.626	  0.074	  0.422	  0.344	 -0.085	 -9.726	 -0.003	 -0.000	  0.001	 31.700	 99.090	 -0.728
45445	  0.624	  0.074	  0.421	  0.330	 -0.078	 -9.773	 -0.004	  0.004	  0.001	 31.700	 99.090	 -0.728
45495	  0.624	  0.073	  0.422	  0.322	 -0.080	 -9.737	 -0.004	  0.001	  0.000	 31.700	 99.094	 -1.090
45545	  0.623	  0.070	  0.420	  0.336	 -0.083	 -9.745	 -0.004	  0.002	 -0.000	 31.700	 99.090	 -0.728
45595	  0.626	  0.073	  0.421	  0.331	 -0.109	 -9.772	 -0.003	  0.002	  0.001	 31.700	 99.079	  0.267
45645	  0.628	  0.073	  0.423	  0.319	 -0.090	 -9.742	 -0.003	  0.002	  0.000	 31.700	 99.090	 -0.728
45695	  0.627	  0.073	  0.421	  0.343	 -0.063	 -9.745	 -0.002	  0.003	  0.001	 31.700	 99.090	 -0.728
45745	  0.627	  0.073	  0.421	  0.309	 -0.095	 -9.790	 -0.004	  0.001	 -0.000	 31.700	 99.090	 -0.728
45795	  0.625	  0.072	  0.426	  0.337	 -0.094	 -9.759	 -0.005	  0.003	  0.000	 31.700	 99.090	 -0.728
45845	  0.623	  0.075	  0.420	  0.330	 -0.066	 -9.746	 -0.003	  0.002	  0.001	 31.700	 99.090	 -0.728
45895	  0.624	  0.073	  0.421	  0.333	 -0.082	 -9.740	 -0.004	  0.002	 -0.000	 31.700	 99.090	 -0.728
45945	  0.623	  0.072	  0.422	  0.333	 -0.087	 -9.743	 -0.004	  0.003	 -0.000	 31.700	 99.090	 -0.728
45995	  0.623	  0.073	  0.423	  0.340	 -0.062	 -9.720	 -0.003	  0.002	  0.001	 31.700	 99.090	 -0.728
46045	  0.624	  0.070	  0.417	  0.332	 -0.070	 -9.786	 -0.004	  0.001	 -0.000	 31.700	 99.094	 -1.090
46095	  0.624	  0.073	  0.422	  0.316	 -0.077	 -9.775	 -0.004	  0.002	 -0.000	 31.700	 99.090	 -0.728
46145	  0.622	  0.072	  0.417	  0.360	 -0.068	 -9.730	 -0.004	  0.001	  0.000	 31.700	 99.094	 -1.090
46195	  0.622	  0.073	  0.420	  0.334	 -0.067	 -9.734	 -0.003	  0.002	  0.001	 31.700	 99.090	 -0.728
46245	  0.625	  0.075	  0.422	  0.338	 -0.085	 -9.791	 -0.003	  0.003	 -0.000	 31.700	 99.090	 -0.728
46295	  0.623	  0.078	  0.422	  0.326	 -0.080	 -9.744	 -0.002	  0.001	  0.000	 31.700	 99.079	  0.267
46345	  0.622	  0.073	  0.428	  0.332	 -0.087	 -9.785	 -0.003	  0.002	  0.001	 31.700	 99.090	 -0.728
46395	  0.624	  0.071	  0.422	  0.315	 -0.084	 -9.751	 -0.003	  0.003	  0.001	 31.700	 99.079	  0.267
46445	  0.624	  0.071	  0.422	  0.330	 -0.074	 -9.721	 -0.003	  0.002	  0.000	 31.700	 99.079	  0.267
46495	  0.624	  0.073	  0.423	  0.333	 -0.083	 -9.729	 -0.003	  0.002	  0.000	 31.700	 99.090	 -0.728
46544	  0.623	  0.071	  0.423	  0.333	 -0.075	 -9.759	 -0.004	  0.002	  0.002	 31.700	 99.083	 -0.094
46595	  0.622	  0.072	  0.426	  0.319	 -0.084	 -9.777	 -0.003	  0.002	  0.001	 31.700	 99.094	 -1.090
46645	  0.624	  0.072	  0.419	  0.333	 -0.079	 -9.736	 -0.003	  0.003	  0.001	 31.700	 99.090	 -0.728
46696	  0.625	  0.072	  0.424	  0.328	 -0.065	 -9.771	 -0.003	  0.001	  0.000	 31.700	 99.090	 -0.728
46746	  0.624	  0.080	  0.425	  0.335	 -0.059	 -9.758	 -0.004	  0.002	 -0.001	 31.700	 99.090	 -0.728
46796	  0.621	  0.071	  0.417	  0.344	 -0.066	 -9.737	 -0.003	  0.003	 -0.000	 31.700	 99.079	  0.267
46846	  0.623	  0.074	  0.423	  0.314	 -0.068	 -9.769	 -0.004	  0.002	  0.000	 31.700	 99.090	 -0.728
46896	  0.622	  0.073	  0.426	  0.332	 -0.076	 -9.733	 -0.003	  0.001	  0.001	 31.700	 99.094	 -1.090
46946	  0.623	  0.077	  0.422	  0.322	 -0.085	 -9.788	 -0.003	  0.002	  0.002	 31.700	 99.090	 -0.728
46996	  0.623	  0.072	  0.424	  0.328	 -0.084	 -9.733	 -0.003	  0.003	 -0.000	 31.700	 99.079	  0.267
47046	  0.622	  0.077	  0.423	  0.330	 -0.079	 -9.742	 -0.003	  0.003	  0.001	 31.700	 99.090	 -0.728
47096	  0.621	  0.074	  0.424	  0.311	 -0.089	 -9.793	 -0.004	  0.002	  0.000	 31.700	 99.090	 -0.728
47146	  0.624	  0.072	  0.422	  0.337	 -0.086	 -9.739	 -0.004	  0.002	  0.001	 31.700	 99.079	  0.267
47196	  0.623	  0.069	  0.421	  0.315	 -0.080	 -9.729	 -0.004	  0.000	 -0.000	 31.700	 99.079	  0.267
47246	  0.622	  0.073	  0.422	  0.325	 -0.084	 -9.745	 -0.003	  0.001	  0.000	 31.700	 99.090	 -0.728
47296	  0.623	  0.075	  0.422	  0.297	 -0.070	 -9.761	 -0.004	  0.002	  0.001	 31.700	 99.083	 -0.094
47346	  0.622	  0.073	  0.428	  0.333	 -0.067	 -9.766	 -0.003	  0.004	  0.000	 31.700	 99.079	  0.267
47396	  0.622	  0.071	  0.422	  0.329	 -0.078	 -9.728	 -0.004	  0.002	  0.000	 31.700	 99.079	  0.267
47446	  0.622	  0.073	  0.422	  0.328	 -0.075	 -9.789	 -0.003	  0.002	  0.001	 31.700	 99.090	 -0.728
47496	  0.623	  0.074	  0.422	  0.322	 -0.076	 -9.745	 -0.004	  0.004	 -0.001	 31.700	 99.090	 -0.728
47546	  0.620	  0.069	  0.422	  0.346	 -0.074	 -9.773	 -0.003	  0.002	 -0.000	 31.700	 99.094	 -1.090
47596	  0.623	  0.069	  0.421	  0.305	 -0.069	 -9.744	 -0.004	  0.003	 -0.000	 31.700	 99.079	  0.267
47646	  0.624	  0.071	  0.423	  0.316	 -0.051	 -9.733	 -0.004	  0.003	  0.000	 31.700	 99.094	 -1.090
47696	  0.627	  0.074	  0.424	  0.323	 -0.072	 -9.755	 -0.004	  0.002	 -0.000	 31.700	 99.083	 -0.094
47746	  0.621	  0.070	  0.422	  0.313	 -0.078	 -9.762	 -0.004	  0.003	  0.001	 31.700	 99.079	  0.267
47796	  0.625	  0.073	  0.426	  0.312	 -0.098	 -9.774	 -0.003	  0.001	  0.001	 31.700	 99.083	 -0.094
47846	  0.620	  0.072	  0.422	  0.341	 -0.067	 -9.739	 -0.002	  0.002	 -0.000	 31.700	 99.090	 -0.728
47896	  0.625	  0.071	  0.422	  0.302	 -0.079	 -9.777	 -0.004	  0.002	  0.002	 31.700	 99.083	 -0.094
47946	  0.625	  0.075	  0.422	  0.323	 -0.092	 -9.743	 -0.002	  0.004	  0.000	 31.700	 99.079	  0.267
47996	  0.623	  0.076	  0.422	  0.323	 -0.078	 -9.782	 -0.002	  0.002	  0.001	 31.700	 99.079	  0.267
48046	  0.625	  0.072	  0.424	  0.340	 -0.090	 -9.779	 -0.003	  0.001	 -0.000	 31.700	 99.090	 -0.728
48096	  0.623	  0.074	  0.423	  0.354	 -0.072	 -9.727	 -0.004	  0.001	  0.001	 31.700	 99.079	  0.267
48146	  0.624	  0.074	  0.424	  0.323	 -0.089	 -9.770	 -0.004	  0.003	 -0.000	 31.700	 99.094	 -1.090
48196	  0.622	  0.073	  0.422	  0.316	 -0.091	 -9.758	 -0.004	  0.003	 -0.000	 31.700	 99.083	 -0.094
48246	  0.623	  0.072	  0.423	  0.330	 -0.090	 -9.749	 -0.003	  0.002	  0.000	 31.700	 99.079	  0.267
48296	  0.621	  0.072	  0.422	  0.340	 -0.078	 -9.739	 -0.003	  0.004	  0.001	 31.700	 99.079	  0.267
48346	  0.622	  0.069	  0.421	  0.341	 -0.044	 -9.781	 -0.003	  0.002	 -0.000	 31.700	 99.090	 -0.728
48396	  0.623	  0.075	  0.423	  0.326	 -0.096	 -9.755	 -0.003	  0.003	  0.001	 31.700	 99.083	 -0.094
48446	  0.625	  0.075	  0.422	  0.320	 -0.068	 -9.753	 -0.003	  0.003	  0.001	 31.700	 99.079	  0.267
48496	  0.623	  0.069	  0.419	  0.329	 -0.075	 -9.735	 -0.003	  0.002	  0.001	 31.700	 99.079	  0.267
48546	  0.621	  0.077	  0.424	  0.358	 -0.071	 -9.748	 -0.004	  0.003	  0.000	 31.700	 99.079	  0.267
48596	  0.624	  0.072	  0.422	  0.344	 -0.057	 -9.716	 -0.003	  0.002	 -0.000	 31.700	 99.083	 -0.094
48646	  0.623	  0.074	  0.423	  0.327	 -0.088	 -9.750	 -0.004	  0.005	 -0.000	 31.700	 99.083	 -0.094
48696	  0.625	  0.069	  0.421	  0.313	 -0.096	 -9.739	 -0.003	  0.003	  0.001	 31.700	 99.079	  0.267
48746	  0.623	  0.078	  0.424	  0.322	 -0.071	 -9.788	 -0.002	  0.001	  0.001	 31.700	 99.090	 -0.728
48795	  0.622	  0.076	  0.424	  0.315	 -0.071	 -9.765	 -0.004	  0.003	 -0.000	 31.700	 99.090	 -0.728
48845	  0.621	  0.071	  0.424	  0.331	 -0.088	 -9.788	 -0.002	  0.003	 -0.000	 31.700	 99.079	  0.267
48895	  0.622	  0.075	  0.425	  0.324	 -0.081	 -9.752	 -0.003	  0.002	  0.000	 31.700	 99.067	  1.353
48945	  0.623	  0.072	  0.424	  0.335	 -0.061	 -9.745	 -0.003	  0.002	  0.000	 31.700	 99.072	  0.901
48995	  0.624	  0.075	  0.424	  0.335	 -0.078	 -9.758	 -0.003	  0.002	  0.001	 31.700	 99.079	  0.267
49045	  0.624	  0.074	  0.420	  0.315	 -0.085	 -9.741	 -0.003	  0.003	 -0.001	 31.700	 99.083	 -0.094
49096	  0.623	  0.073	  0.425	  0.328	 -0.064	 -9.762	 -0.004	  0.001	  0.001	 31.700	 99.079	  0.267
49146	  0.624	  0.071	  0.422	  0.327	 -0.052	 -9.743	 -0.003	  0.003	  0.002	 31.700	 99.094	 -1.090
49196	  0.624	  0.071	  0.423	  0.326	 -0.079	 -9.774	 -0.004	  0.000	  0.001	 31.700	 99.079	  0.267
49246	  0.626	  0.072	  0.424	  0.352	 -0.079	 -9.764	 -0.002	  0.002	  0.001	 31.700	 99.090	 -0.728
49295	  0.622	  0.073	  0.419	  0.308	 -0.076	 -9.766	 -0.004	  0.003	  0.000	 31.700	 99.079	  0.267
49345	  0.622	  0.070	  0.423	  0.332	 -0.087	 -9.765	 -0.003	  0.002	 -0.000	 31.700	 99.094	 -1.090
49395	  0.622	  0.072	  0.426	  0.324	 -0.085	 -9.752	 -0.004	  0.000	  0.001	 31.700	 99.079	  0.267
49445	  0.621	  0.073	  0.424	  0.335	 -0.102	 -9.743	 -0.004	  0.002	 -0.000	 31.700	 99.083	 -0.094
49495	  0.623	  0.071	  0.424	  0.326	 -0.095	 -9.771	 -0.003	  0.002	  0.001	 31.700	 99.079	  0.267
49545	  0.623	  0.073	  0.422	  0.329	 -0.094	 -9.720	 -0.004	  0.001	  0.001	 31.700	 99.072	  0.901
49595	  0.622	  0.074	  0.421	  0.329	 -0.058	 -9.764	 -0.003	  0.001	  0.002	 31.700	 99.079	  0.267
49645	  0.624	  0.074	  0.428	  0.340	 -0.078	 -9.732	 -0.003	 -0.001	  0.000	 31.700	 99.079	  0.267
49696	  0.623	  0.073	  0.421	  0.322	 -0.092	 -9.754	 -0.004	  0.003	 -0.000	 31.700	 99.079	  0.267
49746	  0.622	  0.072	  0.424	  0.310	 -0.071	 -9.761	 -0.003	  0.001	 -0.000	 31.700	 99.079	  0.267
49795	  0.623	  0.076	  0.424	  0.316	 -0.069	 -9.759	 -0.004	  0.002	  0.001	 31.700	 99.083	 -0.094
49845	  0.624	  0.076	  0.422	  0.323	 -0.084	 -9.731	 -0.005	  0.002	  0.001	 31.700	 99.079	  0.267
49895	  0.623	  0.072	  0.425	  0.350	 -0.081	 -9.764	 -0.003	  0.002	  0.002	 31.700	 99.079	  0.267
49945	  0.623	  0.071	  0.422	  0.343	 -0.088	 -9.745	 -0.004	  0.003	  0.001	 31.700	 99.083	 -0.094
49995	  0.624	  0.071	  0.425	  0.329	 -0.085	 -9.735	 -0.004	  0.002	  0.000	 31.700	 99.094	 -1.090
50045	  0.624	  0.073	  0.425	  0.323	 -0.079	 -9.748	 -0.004	  0.003	  0.000	 31.700	 99.079	  0.267
50095	  0.621	  0.073	  0.416	  0.358	 -0.078	 -9.784	 -0.005	  0.002	  0.000	 31.700	 99.083	 -0.094
50145	  0.623	  0.076	  0.424	  0.323	 -0.092	 -9.742	 -0.003	  0.002	  0.001	 31.700	 99.072	  0.901
50195	  0.624	  0.075	  0.426	  0.319	 -0.076	 -9.790	 -0.003	  0.004	  0.000	 31.700	 99.072	  0.901
50245	  0.622	  0.071	  0.419	  0.306	 -0.069	 -9.776	 -0.004	  0.003	  0.001	 31.700	 99.079	  0.267
50295	  0.622	  0.075	  0.424	  0.331	 -0.090	 -9.737	 -0.005	  0.002	  0.000	 31.700	 99.083	 -0.094
50345	  0.619	  0.069	  0.421	  0.337	 -0.087	 -9.769	 -0.003	  0.003	  0.000	 31.700	 99.079	  0.267
50395	  0.623	  0.072	  0.420	  0.347	 -0.061	 -9.759	 -0.004	  0.004	  0.002	 31.700	 99.090	 -0.728
50445	  0.623	  0.070	  0.425	  0.336	 -0.100	 -9.743	 -0.003	  0.001	  0.000	 31.700	 99.083	 -0.094
50495	  0.622	  0.071	  0.424	  0.321	 -0.086	 -9.748	 -0.003	  0.003	 -0.000	 31.700	 99.094	 -1.090
50545	  0.621	  0.073	  0.422	  0.332	 -0.084	 -9.727	 -0.003	  0.000	  0.000	 31.700	 99.079	  0.267
50595	  0.625	  0.076	  0.419	  0.333	 -0.079	 -9.777	 -0.004	  0.002	 -0.000	 31.700	 99.083	 -0.094
50645	  0.622	  0.071	  0.422	  0.304	 -0.081	 -9.758	 -0.003	  0.003	  0.001	 31.700	 99.079	  0.267
50695	  0.623	  0.071	  0.417	  0.328	 -0.066	 -9.766	 -0.003	  0.003	  0.001	 31.700	 99.090	 -0.728
50745	  0.623	  0.072	  0.426	  0.328	 -0.074	 -9.733	 -0.003	  0.002	 -0.000	 31.700	 99.072	  0.901
50795	  0.624	  0.073	  0.422	  0.319	 -0.088	 -9.774	 -0.004	  0.004	 -0.000	 31.700	 99.083	 -0.094
50845	  0.623	  0.075	  0.420	  0.305	 -0.101	 -9.761	 -0.004	  0.002	  0.000	 31.700	 99.094	 -1.090
50895	  0.621	  0.073	  0.421	  0.321	 -0.077	 -9.761	 -0.003	  0.003	  0.000	 31.700	 99.083	 -0.094
50945	  0.623	  0.069	  0.423	  0.341	 -0.068	 -9.761	 -0.003	  0.001	  0.001	 31.700	 99.072	  0.901
50995	  0.622	  0.072	  0.422	  0.334	 -0.083	 -9.752	 -0.003	  0.003	  0.001	 31.700	 99.079	  0.267
51045	  0.623	  0.075	  0.419	  0.311	 -0.088	 -9.744	 -0.005	  0.002	 -0.001	 31.700	 99.079	  0.267
51095	  0.622	  0.071	  0.423	  0.337	 -0.080	 -9.783	 -0.004	  0.002	  0.000	 31.700	 99.079	  0.267
51145	  0.620	  0.073	  0.424	  0.325	 -0.086	 -9.737	 -0.004	  0.002	  0.001	 31.700	 99.067	  1.353
51195	  0.619	  0.072	  0.419	  0.339	 -0.064	 -9.764	 -0.003	  0.002	  0.000	 31.700	 99.079	  0.267
51245	  0.622	  0.071	  0.425	  0.328	 -0.081	 -9.766	 -0.003	  0.003	  0.000	 31.700	 99.083	 -0.094
51295	  0.622	  0.070	  0.424	  0.332	 -0.078	 -9.718	 -0.004	  0.002	  0.001	 31.700	 99.083	 -0.094
51345	  0.622	  0.077	  0.425	  0.330	 -0.062	 -9.760	 -0.004	  0.002	  0.001	 31.700	 99.079	  0.267
51395	  0.623	  0.078	  0.422	  0.333	 -0.061	 -9.796	 -0.003	  0.002	  0.001	 31.700	 99.094	 -1.090
51445	  0.623	  0.071	  0.423	  0.349	 -0.084	 -9.779	 -0.004	  0.003	  0.001	 31.700	 99.083	 -0.094
51495	  0.622	  0.073	  0.419	  0.332	 -0.098	 -9.766	 -0.004	  0.004	  0.001	 31.700	 99.079	  0.267
51545	  0.621	  0.071	  0.424	  0.337	 -0.085	 -9.764	 -0.003	  0.004	  0.001	 31.700	 99.083	 -0.094
51595	  0.622	  0.072	  0.423	  0.332	 -0.073	 -9.783	 -0.003	  0.002	  0.000	 31.700	 99.094	 -1.090
51645	  0.621	  0.075	  0.423	  0.335	 -0.079	 -9.776	 -0.003	  0.003	  0.001	 31.700	 99.094	 -1.090
51695	  0.623	  0.074	  0.424	  0.343	 -0.067	 -9.736	 -0.002	  0.003	  0.000	 31.700	 99.083	 -0.094
51745	  0.622	  0.071	  0.422	  0.334	 -0.083	 -9.806	 -0.004	  0.003	  0.001	 31.700	 99.083	 -0.094
51795	  0.622	  0.071	  0.425	  0.343	 -0.085	 -9.752	 -0.002	  0.004	  0.001	 31.700	 99.094	 -1.090
51845	  0.622	  0.077	  0.423	  0.339	 -0.073	 -9.759	 -0.003	  0.001	  0.000	 31.700	 99.090	 -0.728
51895	  0.621	  0.075	  0.422	  0.311	 -0.094	 -9.731	 -0.004	  0.000	  0.001	 31.700	 99.083	 -0.094
51945	  0.625	  0.075	  0.423	  0.307	 -0.076	 -9.749	 -0.004	  0.003	  0.001	 31.700	 99.079	  0.267
51995	  0.623	  0.069	  0.424	  0.322	 -0.061	 -9.748	 -0.004	  0.003	  0.001	 31.700	 99.090	 -0.728
52045	  0.623	  0.072	  0.422	  0.322	 -0.075	 -9.748	 -0.004	  0.002	  0.000	 31.700	 99.083	 -0.094
52095	  0.621	  0.074	  0.423	  0.305	 -0.093	 -9.744	 -0.003	  0.003	 -0.000	 31.700	 99.079	  0.267
52145	  0.622	  0.074	  0.425	  0.309	 -0.085	 -9.752	 -0.004	  0.002	  0.001	 31.700	 99.090	 -0.728
52195	  0.622	  0.071	  0.422	  0.325	 -0.085	 -9.757	 -0.003	  0.002	  0.001	 31.700	 99.079	  0.267
52246	  0.622	  0.072	  0.421	  0.339	 -0.087	 -9.787	 -0.004	  0.002	  0.000	 31.700	 99.083	 -0.094
52296	  0.621	  0.074	  0.421	  0.325	 -0.056	 -9.743	 -0.003	  0.002	  0.000	 31.700	 99.079	  0.267
52346	  0.620	  0.070	  0.421	  0.362	 -0.062	 -9.718	 -0.004	  0.002	  0.001	 31.700	 99.083	 -0.094
52396	  0.622	  0.077	  0.424	  0.326	 -0.061	 -9.756	 -0.002	  0.002	 -0.000	 31.700	 99.094	 -1.090
52446	  0.621	  0.073	  0.422	  0.341	 -0.083	 -9.755	 -0.004	  0.002	  0.001	 31.700	 99.083	 -0.094
52496	  0.624	  0.073	  0.422	  0.330	 -0.075	 -9.745	 -0.003	  0.003	  0.001	 31.700	 99.094	 -1.090
52546	  0.623	  0.072	  0.422	  0.332	 -0.080	 -9.733	 -0.003	  0.001	 -0.000	 31.700	 99.067	  1.353
52596	  0.624	  0.070	  0.422	  0.337	 -0.056	 -9.762	 -0.004	  0.003	  0.000	 31.700	 99.083	 -0.094
52646	  0.621	  0.070	  0.419	  0.316	 -0.060	 -9.795	 -0.003	  0.002	  0.000	 31.700	 99.083	 -0.094
52696	  0.622	  0.074	  0.423	  0.340	 -0.066	 -9.753	 -0.004	  0.002	  0.000	 31.700	 99.083	 -0.094
52746	  0.623	  0.072	  0.419	  0.324	 -0.106	 -9.776	 -0.004	  0.003	  0.000	 31.700	 99.094	 -1.090
52796	  0.622	  0.075	  0.423	  0.322	 -0.070	 -9.758	 -0.002	  0.003	 -0.001	 31.700	 99.083	 -0.094
52846	  0.622	  0.073	  0.425	  0.345	 -0.082	 -9.755	 -0.004	  0.003	  0.000	 31.700	 99.072	  0.901
52896	  0.623	  0.072	  0.421	  0.322	 -0.073	 -9.746	 -0.003	  0.002	  0.000	 31.700	 99.083	 -0.094
52946	  0.622	  0.077	  0.422	  0.338	 -0.069	 -9.768	 -0.002	  0.001	 -0.000	 31.700	 99.090	 -0.728
52996	  0.623	  0.076	  0.422	  0.319	 -0.091	 -9.760	 -0.002	  0.002	  0.001	 31.700	 99.079	  0.267
53046	  0.622	  0.073	  0.421	  0.303	 -0.082	 -9.738	 -0.005	  0.003	  0.001	 31.700	 99.083	 -0.094
53096	  0.623	  0.072	  0.424	  0.343	 -0.077	 -9.731	 -0.002	  0.003	 -0.001	 31.700	 99.072	  0.901
53146	  0.624	  0.075	  0.422	  0.324	 -0.083	 -9.785	 -0.003	  0.002	  0.001	 31.700	 99.083	 -0.094
