Time	 MagX	 MagY	 MagZ	 AccelX	 AccelY	 AccelZ	 Yaw	 Pitch	 Roll	 Temperature	 Pressure	 Altitude
15272	 -0.157	 -0.221	  0.434	  0.115	  0.106	 -9.779	 -0.003	  0.002	  0.001	 29.400	 99.135	 -99999.000
15323	 -0.161	 -0.224	  0.439	  0.104	  0.092	 -9.799	 -0.003	  0.001	  0.001	 29.400	 99.146	 -99999.000
15373	 -0.160	 -0.223	  0.441	  0.084	  0.098	 -9.756	 -0.003	  0.002	  0.002	 29.400	 99.124	 -99999.000
15423	 -0.160	 -0.222	  0.439	  0.131	  0.084	 -9.794	 -0.003	  0.002	  0.001	 29.400	 99.131	 -99999.000
15473	 -0.160	 -0.218	  0.441	  0.114	  0.079	 -9.755	 -0.004	  0.003	  0.001	 29.400	 99.139	 -99999.000
15523	 -0.159	 -0.219	  0.442	  0.099	  0.085	 -9.776	 -0.004	  0.002	  0.002	 29.400	 99.124	 -99999.000
15573	 -0.159	 -0.217	  0.439	  0.111	  0.082	 -9.762	 -0.003	  0.002	  0.000	 29.400	 99.124	 -99999.000
15623	 -0.158	 -0.215	  0.439	  0.094	  0.087	 -9.770	 -0.003	  0.003	  0.002	 29.400	 99.139	 -99999.000
15673	 -0.160	 -0.224	  0.436	  0.104	  0.127	 -9.757	 -0.002	  0.001	  0.001	 29.400	 99.124	 -99999.000
15723	 -0.157	 -0.214	  0.442	  0.090	  0.090	 -9.769	 -0.003	  0.003	  0.000	 29.400	 99.135	 -99999.000
15773	 -0.161	 -0.219	  0.442	  0.115	  0.101	 -9.787	 -0.003	  0.002	  0.000	 29.400	 99.128	 -99999.000
15823	 -0.159	 -0.224	  0.439	  0.127	  0.079	 -9.793	 -0.002	  0.001	  0.002	 29.400	 99.135	 -99999.000
15873	 -0.157	 -0.220	  0.438	  0.115	  0.096	 -9.751	 -0.003	  0.003	  0.002	 29.400	 99.135	 -99999.000
15923	 -0.161	 -0.220	  0.437	  0.089	  0.098	 -9.811	 -0.004	  0.003	  0.001	 29.400	 99.124	 -99999.000
15973	 -0.160	 -0.219	  0.434	  0.138	  0.120	 -9.812	 -0.002	  0.002	  0.001	 29.400	 99.124	 -99999.000
16023	 -0.157	 -0.218	  0.443	  0.113	  0.076	 -9.779	 -0.004	  0.002	  0.001	 29.400	 99.135	 -99999.000
16073	 -0.157	 -0.223	  0.440	  0.099	  0.104	 -9.765	 -0.003	  0.002	  0.000	 29.400	 99.135	 -99999.000
16123	 -0.160	 -0.220	  0.437	  0.102	  0.113	 -9.801	 -0.003	  0.000	  0.002	 29.400	 99.128	 -99999.000
16173	 -0.160	 -0.224	  0.441	  0.110	  0.078	 -9.803	 -0.003	  0.003	  0.000	 29.400	 99.124	 -99999.000
16223	 -0.159	 -0.219	  0.439	  0.098	  0.080	 -9.749	 -0.002	  0.001	  0.002	 29.400	 99.124	 -99999.000
16273	 -0.159	 -0.221	  0.440	  0.107	  0.072	 -9.776	 -0.004	  0.003	  0.001	 29.400	 99.139	 -99999.000
16323	 -0.160	 -0.220	  0.439	  0.121	  0.078	 -9.786	 -0.004	  0.002	  0.001	 29.400	 99.128	 -99999.000
16373	 -0.159	 -0.218	  0.436	  0.093	  0.081	 -9.772	 -0.003	  0.002	  0.001	 29.400	 99.139	 -99999.000
16423	 -0.157	 -0.218	  0.440	  0.124	  0.086	 -9.804	 -0.004	  0.002	  0.001	 29.400	 99.135	 -99999.000
16473	 -0.161	 -0.224	  0.438	  0.120	  0.077	 -9.769	 -0.003	  0.002	  0.002	 29.400	 99.124	 -99999.000
16523	 -0.157	 -0.218	  0.435	  0.099	  0.087	 -9.770	 -0.003	  0.002	  0.001	 29.400	 99.128	 -99999.000
16573	 -0.159	 -0.218	  0.441	  0.101	  0.107	 -9.784	 -0.004	  0.001	  0.001	 29.400	 99.128	 -99999.000
16623	 -0.162	 -0.221	  0.440	  0.112	  0.079	 -9.790	 -0.003	  0.002	  0.001	 29.400	 99.135	 -99999.000
16673	 -0.161	 -0.220	  0.437	  0.122	  0.116	 -9.786	 -0.004	  0.003	  0.002	 29.400	 99.124	 -99999.000
16723	 -0.159	 -0.224	  0.440	  0.094	  0.078	 -9.783	 -0.003	  0.001	  0.001	 29.400	 99.128	 -99999.000
16773	 -0.160	 -0.223	  0.441	  0.117	  0.092	 -9.723	 -0.003	  0.002	  0.001	 29.400	 99.128	 -99999.000
16823	 -0.160	 -0.222	  0.442	  0.106	  0.088	 -9.741	 -0.003	  0.003	  0.001	 29.400	 99.128	 -99999.000
16873	 -0.160	 -0.220	  0.436	  0.110	  0.091	 -9.773	 -0.003	  0.003	  0.001	 29.400	 99.135	 -99999.000
16923	 -0.159	 -0.223	  0.443	  0.122	  0.100	 -9.756	 -0.003	  0.002	 -0.000	 29.400	 99.124	 -99999.000
16973	 -0.160	 -0.223	  0.436	  0.114	  0.105	 -9.750	 -0.003	  0.002	  0.000	 29.400	 99.128	 -99999.000
17023	 -0.160	 -0.221	  0.439	  0.123	  0.080	 -9.766	 -0.004	  0.002	  0.001	 29.400	 99.124	 -99999.000
17073	 -0.160	 -0.221	  0.439	  0.104	  0.074	 -9.763	 -0.004	  0.002	  0.001	 29.400	 99.139	 -99999.000
17123	 -0.160	 -0.221	  0.440	  0.117	  0.092	 -9.781	 -0.003	  0.002	  0.001	 29.400	 99.128	 -99999.000
17173	 -0.160	 -0.222	  0.434	  0.103	  0.077	 -9.767	 -0.004	  0.002	  0.001	 29.400	 99.128	 -99999.000
17223	 -0.160	 -0.221	  0.442	  0.119	  0.096	 -9.779	 -0.003	  0.002	  0.001	 29.400	 99.139	 -99999.000
17273	 -0.160	 -0.224	  0.438	  0.125	  0.106	 -9.783	 -0.003	  0.003	  0.002	 29.400	 99.128	 -99999.000
17323	 -0.161	 -0.225	  0.441	  0.112	  0.075	 -9.762	 -0.003	  0.002	  0.001	 29.400	 99.128	 -99999.000
17373	 -0.159	 -0.221	  0.442	  0.108	  0.105	 -9.755	 -0.004	  0.001	  0.002	 29.400	 99.128	 -99999.000
17423	 -0.159	 -0.224	  0.434	  0.098	  0.101	 -9.778	 -0.003	  0.002	  0.001	 29.400	 99.139	 -99999.000
17473	 -0.160	 -0.223	  0.440	  0.092	  0.099	 -9.768	 -0.004	  0.002	  0.001	 29.400	 99.139	 -99999.000
17523	 -0.159	 -0.221	  0.435	  0.119	  0.123	 -9.729	 -0.003	  0.002	  0.001	 29.400	 99.128	 -99999.000
17573	 -0.161	 -0.223	  0.439	  0.094	  0.100	 -9.808	 -0.004	  0.001	  0.002	 29.400	 99.128	 -99999.000
17623	 -0.161	 -0.222	  0.438	  0.106	  0.106	 -9.731	 -0.003	  0.003	  0.002	 29.400	 99.128	 -99999.000
17673	 -0.161	 -0.223	  0.441	  0.097	  0.098	 -9.789	 -0.004	  0.003	  0.001	 29.400	 99.128	 -99999.000
17723	 -0.161	 -0.222	  0.438	  0.116	  0.090	 -9.778	 -0.003	  0.003	  0.002	 29.400	 99.128	 -99999.000
17773	 -0.158	 -0.225	  0.440	  0.116	  0.099	 -9.778	 -0.002	  0.002	  0.001	 29.400	 99.128	 -99999.000
17823	 -0.160	 -0.216	  0.442	  0.110	  0.096	 -9.765	 -0.003	  0.002	  0.001	 29.400	 99.139	 -99999.000
17873	 -0.161	 -0.226	  0.439	  0.100	  0.062	 -9.721	 -0.003	  0.003	  0.001	 29.400	 99.128	 -99999.000
17923	 -0.160	 -0.224	  0.440	  0.100	  0.073	 -9.774	 -0.004	  0.002	  0.001	 29.400	 99.128	 -99999.000
17973	 -0.157	 -0.220	  0.441	  0.093	  0.072	 -9.789	 -0.003	  0.002	  0.001	 29.400	 99.128	 -99999.000
18023	 -0.160	 -0.220	  0.438	  0.107	  0.090	 -9.797	 -0.004	  0.002	  0.002	 29.400	 99.128	 -99999.000
18073	 -0.159	 -0.223	  0.441	  0.091	  0.096	 -9.754	 -0.004	  0.002	  0.001	 29.400	 99.139	 -99999.000
18123	 -0.158	 -0.223	  0.441	  0.100	  0.107	 -9.736	 -0.003	  0.003	  0.002	 29.400	 99.139	 -99999.000
18173	 -0.160	 -0.221	  0.432	  0.123	  0.112	 -9.796	 -0.003	  0.002	  0.001	 29.400	 99.128	 -99999.000
18223	 -0.160	 -0.219	  0.440	  0.093	  0.070	 -9.766	 -0.002	  0.002	  0.001	 29.400	 99.128	 -99999.000
18273	 -0.158	 -0.225	  0.440	  0.095	  0.107	 -9.749	 -0.004	  0.002	  0.000	 29.400	 99.132	 -99999.000
18323	 -0.158	 -0.224	  0.441	  0.084	  0.079	 -9.757	 -0.003	  0.002	  0.001	 29.400	 99.128	 -99999.000
18373	 -0.159	 -0.222	  0.438	  0.115	  0.088	 -9.782	 -0.003	  0.002	  0.002	 29.400	 99.128	 -99999.000
18422	 -0.161	 -0.223	  0.441	  0.107	  0.092	 -9.770	 -0.003	  0.001	  0.002	 29.400	 99.139	 -99999.000
18473	 -0.160	 -0.218	  0.441	  0.083	  0.113	 -9.773	 -0.003	  0.002	  0.001	 29.400	 99.139	 -99999.000
18523	 -0.159	 -0.217	  0.440	  0.088	  0.108	 -9.749	 -0.003	  0.002	  0.002	 29.400	 99.128	 -99999.000
18573	 -0.161	 -0.224	  0.441	  0.085	  0.090	 -9.754	 -0.003	  0.003	  0.000	 29.400	 99.139	 -99999.000
18623	 -0.161	 -0.220	  0.440	  0.116	  0.095	 -9.790	 -0.003	  0.002	  0.001	 29.400	 99.139	 -99999.000
18673	 -0.161	 -0.224	  0.442	  0.093	  0.095	 -9.762	 -0.003	  0.003	 -0.001	 29.400	 99.128	 -99999.000
18723	 -0.160	 -0.219	  0.437	  0.097	  0.085	 -9.772	 -0.003	  0.002	  0.001	 29.400	 99.139	 -99999.000
18773	 -0.159	 -0.220	  0.438	  0.076	  0.095	 -9.782	 -0.003	  0.002	  0.002	 29.400	 99.139	 -99999.000
18823	 -0.157	 -0.220	  0.439	  0.121	  0.087	 -9.787	 -0.004	  0.001	  0.001	 29.400	 99.128	 -99999.000
18873	 -0.161	 -0.226	  0.445	  0.112	  0.094	 -9.826	 -0.002	  0.003	  0.001	 29.400	 99.139	 -99999.000
18923	 -0.160	 -0.222	  0.441	  0.087	  0.111	 -9.751	 -0.004	  0.003	 -0.000	 29.400	 99.139	 -99999.000
18972	 -0.161	 -0.223	  0.441	  0.130	  0.085	 -9.782	 -0.002	  0.002	  0.001	 29.400	 99.143	 -99999.000
19022	 -0.161	 -0.221	  0.442	  0.112	  0.095	 -9.768	 -0.003	  0.002	  0.001	 29.400	 99.132	 -99999.000
19072	 -0.159	 -0.223	  0.441	  0.117	  0.090	 -9.788	 -0.003	  0.001	  0.001	 29.400	 99.132	 -99999.000
19122	 -0.160	 -0.224	  0.442	  0.101	  0.112	 -9.773	 -0.002	  0.003	  0.002	 29.400	 99.128	 -99999.000
19172	 -0.161	 -0.223	  0.443	  0.100	  0.101	 -9.764	 -0.003	  0.002	  0.001	 29.400	 99.128	 -99999.000
19222	 -0.159	 -0.224	  0.439	  0.110	  0.093	 -9.784	 -0.003	  0.003	  0.002	 29.400	 99.128	 -99999.000
19272	 -0.160	 -0.223	  0.436	  0.106	  0.099	 -9.792	 -0.002	  0.002	  0.002	 29.400	 99.132	 -99999.000
19322	 -0.160	 -0.219	  0.441	  0.108	  0.095	 -9.791	 -0.003	  0.003	  0.001	 29.400	 99.128	 -99999.000
19372	 -0.160	 -0.222	  0.438	  0.086	  0.099	 -9.811	 -0.003	  0.002	  0.001	 29.400	 99.132	 -99999.000
19422	 -0.161	 -0.221	  0.438	  0.120	  0.074	 -9.793	 -0.004	  0.002	  0.001	 29.400	 99.132	 -99999.000
19472	 -0.161	 -0.222	  0.438	  0.097	  0.093	 -9.754	 -0.003	  0.003	  0.000	 29.400	 99.117	 -99999.000
19522	 -0.160	 -0.220	  0.439	  0.100	  0.115	 -9.758	 -0.003	  0.002	  0.001	 29.400	 99.143	 -99999.000
19572	 -0.159	 -0.220	  0.439	  0.108	  0.091	 -9.791	 -0.003	  0.002	  0.001	 29.400	 99.128	 -99999.000
19622	 -0.161	 -0.224	  0.444	  0.121	  0.111	 -9.800	 -0.003	  0.002	  0.001	 29.400	 99.128	 -99999.000
19672	 -0.161	 -0.222	  0.439	  0.123	  0.081	 -9.775	 -0.004	  0.002	  0.001	 29.400	 99.128	 -99999.000
19722	 -0.158	 -0.220	  0.441	  0.108	  0.087	 -9.770	 -0.004	  0.003	  0.001	 29.400	 99.121	 -99999.000
19772	 -0.160	 -0.218	  0.442	  0.093	  0.098	 -9.786	 -0.003	  0.002	  0.002	 29.400	 99.121	 -99999.000
19822	 -0.159	 -0.222	  0.440	  0.094	  0.088	 -9.785	 -0.003	  0.001	  0.001	 29.400	 99.139	 -99999.000
19872	 -0.159	 -0.221	  0.442	  0.128	  0.097	 -9.745	 -0.003	  0.003	  0.001	 29.400	 99.128	 -99999.000
19922	 -0.159	 -0.215	  0.439	  0.086	  0.093	 -9.746	 -0.002	  0.002	 -0.000	 29.400	 99.132	 -99999.000
19972	 -0.160	 -0.220	  0.441	  0.099	  0.081	 -9.787	 -0.003	  0.001	  0.001	 29.400	 99.128	 -99999.000
20022	 -0.160	 -0.220	  0.438	  0.133	  0.103	 -9.777	 -0.002	  0.002	  0.001	 29.400	 99.132	 -99999.000
20072	 -0.157	 -0.222	  0.438	  0.121	  0.100	 -9.783	 -0.003	  0.001	  0.001	 29.400	 99.132	 -99999.000
20122	 -0.160	 -0.221	  0.439	  0.118	  0.085	 -9.768	 -0.003	  0.001	  0.001	 29.400	 99.128	 -99999.000
20172	 -0.160	 -0.224	  0.442	  0.096	  0.092	 -9.772	 -0.003	  0.002	  0.001	 29.400	 99.121	 -99999.000
20222	 -0.160	 -0.217	  0.443	  0.090	  0.120	 -9.788	 -0.003	  0.002	  0.001	 29.400	 99.132	 -99999.000
20272	 -0.157	 -0.219	  0.441	  0.098	  0.090	 -9.739	 -0.003	  0.002	  0.000	 29.400	 99.132	 -99999.000
20322	 -0.158	 -0.220	  0.435	  0.116	  0.090	 -9.781	 -0.003	  0.002	  0.000	 29.400	 99.128	 -99999.000
20373	 -0.159	 -0.222	  0.440	  0.130	  0.087	 -9.771	 -0.002	  0.002	  0.001	 29.400	 99.132	 -99999.000
20422	 -0.158	 -0.225	  0.440	  0.100	  0.112	 -9.757	 -0.004	  0.003	  0.001	 29.400	 99.132	 -99999.000
20473	 -0.160	 -0.223	  0.433	  0.089	  0.087	 -9.758	 -0.005	  0.002	  0.000	 29.400	 99.132	 -99999.000
20523	 -0.161	 -0.224	  0.439	  0.102	  0.087	 -9.760	 -0.003	  0.001	  0.001	 29.400	 99.132	 -99999.000
20573	 -0.157	 -0.222	  0.439	  0.120	  0.083	 -9.773	 -0.002	  0.002	  0.001	 29.400	 99.132	 -99999.000
20623	 -0.160	 -0.218	  0.440	  0.121	  0.083	 -9.794	 -0.003	  0.003	  0.001	 29.400	 99.132	 -99999.000
20673	 -0.159	 -0.220	  0.442	  0.094	  0.080	 -9.770	 -0.002	  0.002	  0.001	 29.400	 99.132	 -99999.000
20723	 -0.160	 -0.224	  0.439	  0.104	  0.101	 -9.812	 -0.002	  0.001	  0.001	 29.400	 99.132	 -99999.000
20773	 -0.160	 -0.218	  0.441	  0.118	  0.093	 -9.775	 -0.003	  0.002	  0.001	 29.400	 99.132	 -99999.000
20823	 -0.161	 -0.224	  0.442	  0.113	  0.097	 -9.745	 -0.003	  0.002	  0.001	 29.400	 99.132	 -99999.000
20873	 -0.158	 -0.213	  0.442	  0.097	  0.079	 -9.796	 -0.004	  0.001	  0.001	 29.400	 99.132	 -99999.000
20923	 -0.160	 -0.216	  0.441	  0.094	  0.083	 -9.774	 -0.002	  0.002	  0.001	 29.400	 99.121	 -99999.000
20973	 -0.160	 -0.217	  0.440	  0.110	  0.103	 -9.772	 -0.003	  0.003	  0.001	 29.400	 99.121	 -99999.000
21023	 -0.160	 -0.222	  0.439	  0.111	  0.079	 -9.734	 -0.003	  0.003	  0.000	 29.400	 99.121	 -99999.000
21073	 -0.159	 -0.224	  0.438	  0.091	  0.089	 -9.761	 -0.003	  0.001	  0.001	 29.400	 99.132	 -99999.000
21123	 -0.158	 -0.222	  0.437	  0.081	  0.087	 -9.754	 -0.003	  0.002	  0.001	 29.400	 99.132	 -99999.000
21173	 -0.161	 -0.221	  0.439	  0.118	  0.088	 -9.767	 -0.003	  0.002	  0.001	 29.400	 99.121	 -99999.000
21223	 -0.158	 -0.221	  0.435	  0.134	  0.084	 -9.779	 -0.003	  0.003	  0.001	 29.400	 99.132	 -99999.000
24223	 -0.158	 -0.225	  0.440	  0.106	  0.086	 -9.669	 -0.003	  0.002	  0.002	 29.400	 99.136	 -0.467
24272	 -0.160	 -0.218	  0.440	  0.126	  0.063	 -9.794	 -0.005	  0.003	  0.002	 29.400	 99.125	  0.519
24322	 -0.161	 -0.226	  0.440	  0.082	  0.094	 -9.777	 -0.001	  0.000	  0.002	 29.400	 99.140	 -0.825
24372	 -0.159	 -0.221	  0.434	  0.108	  0.109	 -9.778	 -0.003	  0.002	  0.002	 29.400	 99.125	  0.519
24422	 -0.158	 -0.223	  0.441	  0.082	  0.094	 -9.766	 -0.002	  0.001	  0.001	 29.400	 99.125	  0.519
24472	 -0.160	 -0.221	  0.438	  0.099	  0.119	 -9.765	 -0.004	  0.001	  0.001	 29.400	 99.129	  0.160
24522	 -0.161	 -0.221	  0.440	  0.106	  0.100	 -9.754	 -0.003	  0.002	  0.001	 29.400	 99.129	  0.160
24572	 -0.160	 -0.220	  0.440	  0.137	  0.106	 -9.760	 -0.003	  0.002	  0.002	 29.400	 99.129	  0.160
24622	 -0.160	 -0.226	  0.435	  0.059	  0.135	 -9.785	 -0.005	  0.001	  0.001	 29.400	 99.140	 -0.825
24672	 -0.160	 -0.224	  0.441	  0.173	  0.081	 -9.773	 -0.004	  0.004	  0.001	 29.400	 99.125	  0.519
24722	 -0.159	 -0.221	  0.438	  0.106	  0.081	 -9.796	 -0.002	  0.002	  0.001	 29.400	 99.129	  0.160
24772	 -0.160	 -0.223	  0.439	  0.119	  0.088	 -9.749	 -0.004	  0.002	  0.002	 29.400	 99.136	 -0.467
24822	 -0.161	 -0.220	  0.440	  0.095	  0.092	 -9.790	 -0.003	  0.003	  0.001	 29.400	 99.129	  0.160
24872	 -0.159	 -0.223	  0.435	  0.132	  0.082	 -9.785	 -0.003	  0.001	  0.002	 29.400	 99.129	  0.160
24922	 -0.159	 -0.218	  0.438	  0.099	  0.087	 -9.772	 -0.004	  0.002	  0.002	 29.400	 99.125	  0.519
24972	 -0.159	 -0.224	  0.442	  0.115	  0.106	 -9.760	 -0.003	  0.002	  0.001	 29.400	 99.129	  0.160
25022	 -0.159	 -0.222	  0.437	  0.124	  0.106	 -9.783	 -0.003	  0.003	  0.002	 29.400	 99.129	  0.160
25072	 -0.160	 -0.225	  0.435	  0.113	  0.101	 -9.785	 -0.003	  0.001	 -0.000	 29.400	 99.129	  0.160
25122	 -0.161	 -0.224	  0.439	  0.116	  0.087	 -9.745	 -0.002	  0.002	  0.001	 29.400	 99.129	  0.160
25172	 -0.161	 -0.220	  0.435	  0.123	  0.106	 -9.780	 -0.004	  0.001	  0.001	 29.400	 99.129	  0.160
25222	 -0.160	 -0.220	  0.440	  0.107	  0.078	 -9.762	 -0.003	  0.002	  0.000	 29.400	 99.140	 -0.825
25272	 -0.159	 -0.223	  0.435	  0.127	  0.087	 -9.803	 -0.003	  0.003	  0.000	 29.400	 99.129	  0.160
25322	 -0.159	 -0.219	  0.439	  0.123	  0.118	 -9.733	 -0.005	  0.003	  0.001	 29.400	 99.136	 -0.467
25372	 -0.159	 -0.224	  0.437	  0.106	  0.094	 -9.782	 -0.002	  0.001	  0.001	 29.400	 99.118	  1.146
25422	 -0.159	 -0.219	  0.439	  0.129	  0.094	 -9.805	 -0.003	  0.003	  0.001	 29.400	 99.129	  0.160
25472	 -0.160	 -0.219	  0.442	  0.122	  0.081	 -9.746	 -0.003	  0.002	  0.001	 29.500	 99.133	 -0.198
25522	 -0.161	 -0.223	  0.440	  0.113	  0.086	 -9.791	 -0.003	  0.002	  0.002	 29.400	 99.129	  0.160
25572	 -0.159	 -0.221	  0.440	  0.103	  0.097	 -9.781	 -0.002	  0.001	  0.002	 29.400	 99.129	  0.160
25622	 -0.160	 -0.224	  0.443	  0.120	  0.084	 -9.751	 -0.002	  0.002	  0.000	 29.400	 99.129	  0.160
25673	 -0.159	 -0.217	  0.440	  0.089	  0.101	 -9.737	 -0.002	  0.002	  0.000	 29.400	 99.140	 -0.825
25722	 -0.161	 -0.224	  0.443	  0.108	  0.097	 -9.795	 -0.004	  0.001	  0.001	 29.400	 99.129	  0.160
25773	 -0.159	 -0.223	  0.437	  0.104	  0.094	 -9.778	 -0.003	  0.002	  0.001	 29.400	 99.129	  0.160
25822	 -0.158	 -0.221	  0.437	  0.115	  0.106	 -9.764	 -0.004	  0.002	  0.001	 29.400	 99.129	  0.160
25873	 -0.158	 -0.221	  0.440	  0.106	  0.112	 -9.765	 -0.003	  0.001	  0.002	 29.400	 99.129	  0.160
25923	 -0.159	 -0.222	  0.435	  0.131	  0.092	 -9.772	 -0.004	  0.003	  0.001	 29.400	 99.129	  0.160
25973	 -0.161	 -0.224	  0.441	  0.112	  0.071	 -9.788	 -0.003	  0.002	  0.001	 29.400	 99.129	  0.160
26022	 -0.159	 -0.224	  0.441	  0.105	  0.094	 -9.782	 -0.002	  0.001	  0.001	 29.400	 99.129	  0.160
26073	 -0.158	 -0.224	  0.442	  0.098	  0.088	 -9.789	 -0.003	  0.002	  0.001	 29.400	 99.140	 -0.825
26123	 -0.158	 -0.223	  0.441	  0.116	  0.106	 -9.767	 -0.003	  0.003	  0.001	 29.400	 99.140	 -0.825
26173	 -0.159	 -0.219	  0.441	  0.110	  0.087	 -9.758	 -0.003	  0.002	  0.001	 29.400	 99.133	 -0.198
26223	 -0.160	 -0.226	  0.435	  0.121	  0.087	 -9.773	 -0.003	  0.002	  0.001	 29.400	 99.129	  0.160
26273	 -0.159	 -0.224	  0.441	  0.111	  0.078	 -9.767	 -0.003	  0.002	  0.001	 29.400	 99.129	  0.160
26323	 -0.160	 -0.222	  0.435	  0.110	  0.080	 -9.753	 -0.002	  0.002	 -0.000	 29.400	 99.129	  0.160
26373	 -0.160	 -0.220	  0.436	  0.130	  0.083	 -9.776	 -0.003	  0.001	  0.000	 29.400	 99.129	  0.160
26423	 -0.159	 -0.221	  0.439	  0.110	  0.103	 -9.772	 -0.003	  0.002	  0.003	 29.400	 99.129	  0.160
26473	 -0.161	 -0.225	  0.440	  0.125	  0.080	 -9.789	 -0.003	  0.002	  0.000	 29.400	 99.129	  0.160
26523	 -0.160	 -0.218	  0.438	  0.124	  0.106	 -9.755	 -0.003	  0.002	  0.001	 29.400	 99.129	  0.160
26573	 -0.160	 -0.223	  0.440	  0.110	  0.100	 -9.749	 -0.003	  0.003	 -0.000	 29.400	 99.129	  0.160
26623	 -0.158	 -0.224	  0.439	  0.113	  0.110	 -9.786	 -0.002	  0.001	  0.001	 29.400	 99.125	  0.519
26673	 -0.159	 -0.224	  0.437	  0.125	  0.086	 -9.776	 -0.002	  0.002	  0.002	 29.400	 99.133	 -0.198
26723	 -0.161	 -0.222	  0.439	  0.110	  0.082	 -9.762	 -0.003	  0.001	  0.000	 29.400	 99.129	  0.160
26773	 -0.160	 -0.224	  0.440	  0.100	  0.109	 -9.746	 -0.003	  0.001	  0.002	 29.400	 99.118	  1.146
26823	 -0.159	 -0.223	  0.441	  0.102	  0.082	 -9.775	 -0.003	  0.002	  0.001	 29.400	 99.129	  0.160
26873	 -0.160	 -0.222	  0.439	  0.101	  0.091	 -9.798	 -0.003	  0.002	  0.001	 29.400	 99.129	  0.160
26923	 -0.158	 -0.223	  0.438	  0.101	  0.085	 -9.753	 -0.003	  0.003	  0.001	 29.500	 99.133	 -0.198
26973	 -0.160	 -0.223	  0.433	  0.101	  0.081	 -9.795	 -0.004	  0.002	  0.002	 29.500	 99.129	  0.160
27023	 -0.161	 -0.221	  0.442	  0.065	  0.090	 -9.765	 -0.004	  0.002	  0.002	 29.400	 99.129	  0.160
27073	 -0.157	 -0.216	  0.441	  0.092	  0.104	 -9.760	 -0.003	  0.002	  0.002	 29.400	 99.129	  0.160
27123	 -0.160	 -0.225	  0.440	  0.124	  0.077	 -9.768	 -0.004	  0.001	  0.001	 29.500	 99.133	 -0.198
27173	 -0.160	 -0.224	  0.442	  0.100	  0.092	 -9.769	 -0.003	  0.002	  0.002	 29.400	 99.118	  1.146
27223	 -0.162	 -0.222	  0.441	  0.113	  0.086	 -9.771	 -0.004	  0.002	  0.001	 29.400	 99.118	  1.146
27273	 -0.160	 -0.223	  0.441	  0.104	  0.094	 -9.754	 -0.002	  0.002	  0.002	 29.400	 99.133	 -0.198
27323	 -0.159	 -0.223	  0.442	  0.115	  0.090	 -9.780	 -0.003	  0.003	  0.001	 29.400	 99.129	  0.160
27373	 -0.160	 -0.223	  0.442	  0.116	  0.105	 -9.737	 -0.004	  0.001	  0.002	 29.500	 99.133	 -0.198
27423	 -0.160	 -0.221	  0.440	  0.103	  0.084	 -9.797	 -0.003	  0.002	  0.002	 29.400	 99.118	  1.146
27473	 -0.160	 -0.224	  0.439	  0.094	  0.103	 -9.797	 -0.003	  0.002	  0.001	 29.500	 99.129	  0.160
27523	 -0.159	 -0.220	  0.440	  0.513	  0.093	 -10.109	 -0.013	  0.003	 -0.000	 29.500	 99.145	 -1.273
27573	 -0.160	 -0.222	  0.440	  0.126	  0.024	 -9.766	 -0.002	  0.003	  0.002	 29.500	 99.133	 -0.198
27623	 -0.159	 -0.222	  0.434	  0.121	  0.092	 -9.752	 -0.002	  0.000	  0.000	 29.400	 99.129	  0.160
27673	 -0.157	 -0.222	  0.437	  0.119	  0.095	 -9.760	 -0.004	  0.002	  0.000	 29.500	 99.133	 -0.198
27723	 -0.161	 -0.220	  0.441	  0.096	  0.107	 -9.752	 -0.002	  0.003	  0.001	 29.500	 99.133	 -0.198
27773	 -0.158	 -0.223	  0.434	  0.108	  0.080	 -9.797	 -0.003	  0.002	  0.002	 29.500	 99.133	 -0.198
27823	 -0.159	 -0.222	  0.439	  0.118	  0.113	 -9.786	 -0.003	  0.002	  0.001	 29.400	 99.118	  1.146
27873	 -0.159	 -0.226	  0.442	  0.109	  0.084	 -9.780	 -0.002	  0.002	  0.000	 29.400	 99.133	 -0.198
27923	 -0.159	 -0.214	  0.441	  0.100	  0.084	 -9.808	 -0.003	  0.002	  0.002	 29.500	 99.122	  0.787
27973	 -0.157	 -0.220	  0.440	  0.110	  0.091	 -9.749	 -0.003	  0.002	  0.000	 29.500	 99.133	 -0.198
28023	 -0.160	 -0.223	  0.438	  0.128	  0.084	 -9.744	 -0.004	  0.003	  0.001	 29.400	 99.118	  1.146
28073	 -0.160	 -0.221	  0.439	  0.116	  0.079	 -9.765	 -0.003	  0.004	  0.002	 29.500	 99.133	 -0.198
28123	 -0.159	 -0.220	  0.440	  0.121	  0.090	 -9.789	 -0.004	  0.002	  0.001	 29.500	 99.133	 -0.198
28173	 -0.160	 -0.223	  0.440	  0.086	  0.078	 -9.757	 -0.003	  0.001	  0.002	 29.400	 99.133	 -0.198
28223	 -0.160	 -0.222	  0.441	  0.104	  0.093	 -9.796	 -0.002	  0.002	  0.001	 29.500	 99.133	 -0.198
28273	 -0.160	 -0.222	  0.435	  0.095	  0.103	 -9.780	 -0.003	  0.002	  0.001	 29.400	 99.133	 -0.198
28323	 -0.159	 -0.221	  0.439	  0.126	  0.114	 -9.764	 -0.003	  0.001	  0.001	 29.500	 99.122	  0.787
28373	 -0.162	 -0.221	  0.436	  0.099	  0.076	 -9.783	 -0.004	  0.003	  0.002	 29.400	 99.133	 -0.198
28423	 -0.159	 -0.223	  0.435	  0.105	  0.079	 -9.747	 -0.003	  0.002	  0.001	 29.500	 99.133	 -0.198
28473	 -0.161	 -0.222	  0.439	  0.121	  0.086	 -9.782	 -0.003	  0.002	  0.002	 29.500	 99.133	 -0.198
28523	 -0.158	 -0.216	  0.443	  0.117	  0.092	 -9.758	 -0.003	  0.003	  0.001	 29.500	 99.122	  0.787
28573	 -0.159	 -0.224	  0.440	  0.085	  0.096	 -9.745	 -0.003	  0.002	  0.001	 29.500	 99.122	  0.787
28623	 -0.161	 -0.222	  0.441	  0.111	  0.072	 -9.790	 -0.003	  0.001	  0.002	 29.500	 99.122	  0.787
28673	 -0.161	 -0.223	  0.439	  0.035	  0.001	 -9.748	 -0.005	  0.002	  0.001	 29.500	 99.133	 -0.198
28723	 -0.159	 -0.223	  0.440	  0.196	  0.155	 -9.791	 -0.004	  0.002	  0.001	 29.500	 99.122	  0.787
28773	 -0.158	 -0.226	  0.441	  0.103	  0.118	 -9.803	 -0.003	  0.001	  0.001	 29.500	 99.145	 -1.273
28823	 -0.160	 -0.222	  0.438	  0.114	  0.112	 -9.798	 -0.003	  0.002	  0.001	 29.500	 99.133	 -0.198
28873	 -0.159	 -0.223	  0.441	  0.101	  0.076	 -9.790	 -0.002	  0.003	  0.001	 29.500	 99.133	 -0.198
28923	 -0.160	 -0.222	  0.435	  0.107	  0.111	 -9.782	 -0.003	  0.004	  0.001	 29.500	 99.122	  0.787
28973	 -0.161	 -0.223	  0.439	  0.086	  0.074	 -9.796	 -0.004	  0.002	  0.001	 29.500	 99.115	  1.415
29023	 -0.159	 -0.221	  0.438	  0.107	  0.087	 -9.792	 -0.004	  0.002	  0.000	 29.500	 99.129	  0.160
29073	 -0.161	 -0.223	  0.441	  0.140	  0.091	 -9.752	 -0.004	  0.001	  0.002	 29.500	 99.133	 -0.198
29123	 -0.157	 -0.220	  0.441	  0.091	  0.079	 -9.787	 -0.002	  0.002	  0.001	 29.500	 99.133	 -0.198
29173	 -0.161	 -0.223	  0.438	  0.110	  0.117	 -9.807	 -0.003	  0.003	  0.001	 29.500	 99.140	 -0.825
29223	 -0.162	 -0.223	  0.439	  0.107	  0.037	 -9.762	 -0.003	  0.002	  0.002	 29.500	 99.129	  0.160
29273	 -0.160	 -0.218	  0.441	 -0.115	  0.575	 -9.491	  0.005	  0.004	  0.006	 29.500	 99.133	 -0.198
29323	 -0.160	 -0.224	  0.443	  0.046	  0.049	 -9.728	 -0.002	 -0.002	  0.002	 29.500	 99.133	 -0.198
29373	 -0.161	 -0.222	  0.440	  0.134	  0.105	 -9.778	 -0.004	  0.004	  0.000	 29.500	 99.138	 -0.646
29423	 -0.159	 -0.226	  0.441	  0.117	  0.118	 -9.765	 -0.001	  0.001	  0.002	 29.500	 99.133	 -0.198
29473	 -0.161	 -0.223	  0.440	  0.090	  0.063	 -9.813	 -0.003	  0.003	  0.001	 29.500	 99.133	 -0.198
29523	 -0.159	 -0.222	  0.441	  0.142	  0.129	 -9.784	 -0.002	  0.001	  0.001	 29.500	 99.138	 -0.646
29573	 -0.160	 -0.215	  0.439	  0.103	  0.094	 -9.798	 -0.003	  0.003	  0.001	 29.500	 99.122	  0.787
29623	 -0.160	 -0.220	  0.440	  0.117	  0.096	 -9.791	 -0.003	  0.001	  0.000	 29.500	 99.133	 -0.198
29673	 -0.160	 -0.220	  0.442	  0.097	  0.094	 -9.779	 -0.003	  0.001	  0.001	 29.500	 99.133	 -0.198
29723	 -0.159	 -0.221	  0.437	  0.152	 -0.003	 -9.833	 -0.004	  0.004	  0.001	 29.500	 99.133	 -0.198
29773	 -0.160	 -0.220	  0.439	  0.065	  0.051	 -9.836	 -0.001	 -0.002	  0.003	 29.500	 99.133	 -0.198
29823	 -0.159	 -0.220	  0.442	  0.064	  0.069	 -9.784	 -0.004	  0.003	  0.001	 29.500	 99.122	  0.787
29873	 -0.159	 -0.223	  0.437	  0.131	  0.128	 -9.704	 -0.003	  0.001	  0.001	 29.500	 99.133	 -0.198
29923	 -0.160	 -0.224	  0.440	  0.113	  0.171	 -9.813	 -0.004	  0.002	  0.002	 29.500	 99.122	  0.787
29973	 -0.159	 -0.222	  0.440	  0.117	  0.050	 -9.822	 -0.003	  0.001	 -0.000	 29.500	 99.138	 -0.646
30023	 -0.160	 -0.220	  0.441	  0.189	  0.323	 -9.687	 -0.000	  0.002	  0.001	 29.500	 99.138	 -0.646
30073	 -0.161	 -0.221	  0.439	  0.077	  0.049	 -9.752	 -0.003	  0.004	  0.001	 29.500	 99.138	 -0.646
30123	 -0.160	 -0.222	  0.437	  0.043	 -0.035	 -9.899	 -0.001	 -0.002	  0.003	 29.500	 99.138	 -0.646
30173	 -0.160	 -0.219	  0.437	  0.073	  0.103	 -9.759	 -0.003	  0.002	  0.002	 29.500	 99.138	 -0.646
30223	 -0.160	 -0.221	  0.440	  0.151	  0.129	 -9.689	 -0.004	  0.002	  0.002	 29.500	 99.133	 -0.198
30273	 -0.162	 -0.226	  0.439	  0.068	  0.081	 -9.788	 -0.003	  0.002	  0.000	 29.500	 99.138	 -0.646
30323	 -0.160	 -0.214	  0.440	  0.101	  0.074	 -9.796	 -0.004	  0.002	  0.001	 29.500	 99.138	 -0.646
30373	 -0.160	 -0.224	  0.439	 -0.050	 -0.012	 -9.770	 -0.005	  0.002	  0.002	 29.500	 99.138	 -0.646
30423	 -0.159	 -0.223	  0.439	  0.162	  0.120	 -9.725	 -0.004	  0.003	  0.001	 29.500	 99.138	 -0.646
30473	 -0.158	 -0.224	  0.439	  0.289	  0.101	 -9.917	 -0.006	  0.004	 -0.001	 29.500	 99.138	 -0.646
30523	 -0.160	 -0.224	  0.438	  0.125	  0.106	 -9.714	 -0.001	  0.000	  0.001	 29.500	 99.115	  1.415
30573	 -0.158	 -0.225	  0.439	  0.069	  0.015	 -9.756	 -0.004	  0.004	  0.001	 29.500	 99.138	 -0.646
30623	 -0.158	 -0.224	  0.438	  0.087	  0.123	 -9.675	 -0.002	  0.000	  0.000	 29.500	 99.126	  0.429
30673	 -0.159	 -0.222	  0.435	  0.101	  0.033	 -9.810	 -0.004	  0.003	  0.001	 29.500	 99.126	  0.429
30723	 -0.158	 -0.225	  0.441	  0.461	  0.120	 -9.826	 -0.002	  0.003	 -0.005	 29.500	 99.138	 -0.646
30773	 -0.158	 -0.225	  0.438	  0.134	  0.029	 -9.787	 -0.002	  0.001	  0.003	 29.500	 99.122	  0.787
30823	 -0.158	 -0.221	  0.437	  0.052	  0.102	 -9.820	 -0.004	  0.002	 -0.000	 29.500	 99.138	 -0.646
30873	 -0.159	 -0.220	  0.439	  0.073	  0.080	 -9.696	 -0.002	  0.002	  0.002	 29.500	 99.122	  0.787
30923	 -0.160	 -0.223	  0.439	  0.092	  0.072	 -9.737	 -0.003	  0.002	  0.001	 29.500	 99.133	 -0.198
30974	 -0.160	 -0.223	  0.441	  0.140	  0.068	 -9.810	 -0.003	  0.003	  0.003	 29.500	 99.126	  0.429
31022	 -0.159	 -0.216	  0.441	  0.129	  0.135	 -9.762	 -0.002	  0.002	  0.000	 29.500	 99.138	 -0.646
31072	 -0.160	 -0.222	  0.433	  0.088	  0.073	 -9.777	 -0.003	  0.002	  0.002	 29.500	 99.138	 -0.646
31123	 -0.159	 -0.220	  0.440	  0.104	  0.056	 -9.753	 -0.003	  0.001	  0.000	 29.500	 99.126	  0.429
31173	 -0.157	 -0.223	  0.440	  0.086	  0.103	 -9.811	 -0.003	  0.002	  0.001	 29.500	 99.126	  0.429
31224	 -0.161	 -0.223	  0.438	  0.087	  0.114	 -9.763	 -0.003	  0.003	  0.002	 29.500	 99.126	  0.429
31274	 -0.160	 -0.226	  0.438	  0.115	  0.121	 -9.754	 -0.003	  0.001	  0.001	 29.500	 99.138	 -0.646
31323	 -0.162	 -0.219	  0.439	  0.099	  0.090	 -9.752	 -0.003	  0.001	  0.002	 29.500	 99.138	 -0.646
31373	 -0.159	 -0.218	  0.437	  0.121	  0.091	 -9.760	 -0.003	  0.002	  0.002	 29.500	 99.122	  0.787
31423	 -0.161	 -0.222	  0.437	  0.126	  0.120	 -9.770	 -0.004	  0.003	  0.002	 29.500	 99.138	 -0.646
31474	 -0.159	 -0.216	  0.438	  0.103	  0.094	 -9.784	 -0.003	  0.001	  0.001	 29.500	 99.138	 -0.646
31523	 -0.161	 -0.218	  0.438	  0.134	  0.100	 -9.789	 -0.004	  0.002	  0.001	 29.500	 99.138	 -0.646
31573	 -0.160	 -0.219	  0.437	  0.071	  0.103	 -9.785	 -0.003	  0.002	  0.001	 29.500	 99.138	 -0.646
31623	 -0.160	 -0.214	  0.434	  0.140	  0.099	 -9.781	 -0.002	  0.003	  0.001	 29.500	 99.126	  0.429
31673	 -0.161	 -0.218	  0.439	  0.107	  0.076	 -9.744	 -0.004	  0.001	  0.000	 29.500	 99.126	  0.429
31723	 -0.160	 -0.218	  0.437	  0.116	  0.066	 -9.799	 -0.003	  0.002	  0.001	 29.500	 99.138	 -0.646
31773	 -0.159	 -0.213	  0.440	  0.118	  0.092	 -9.780	 -0.003	  0.000	  0.001	 29.500	 99.138	 -0.646
31823	 -0.158	 -0.217	  0.439	  0.085	  0.084	 -9.798	 -0.002	  0.003	  0.001	 29.500	 99.126	  0.429
31873	 -0.160	 -0.218	  0.435	  0.105	  0.102	 -9.805	 -0.004	  0.002	  0.002	 29.500	 99.131	 -0.018
31923	 -0.156	 -0.214	  0.435	  0.117	  0.043	 -9.789	 -0.003	  0.002	  0.001	 29.500	 99.126	  0.429
31973	 -0.157	 -0.212	  0.434	  0.102	  0.121	 -9.775	 -0.003	  0.002	  0.001	 29.500	 99.138	 -0.646
32023	 -0.153	 -0.218	  0.438	  0.107	  0.091	 -9.795	 -0.003	  0.002	  0.000	 29.500	 99.126	  0.429
32073	 -0.156	 -0.215	  0.434	  0.124	  0.083	 -9.791	 -0.003	  0.002	  0.001	 29.500	 99.126	  0.429
32123	 -0.153	 -0.212	  0.437	  0.119	  0.098	 -9.798	 -0.003	  0.001	  0.001	 29.500	 99.138	 -0.646
32173	 -0.155	 -0.215	  0.437	  0.069	  0.110	 -9.723	 -0.002	  0.002	  0.001	 29.500	 99.126	  0.429
32223	 -0.155	 -0.213	  0.437	  0.102	  0.067	 -9.757	 -0.003	  0.002	  0.001	 29.500	 99.138	 -0.646
32273	 -0.154	 -0.213	  0.439	  0.099	  0.135	 -9.749	 -0.003	  0.003	  0.001	 29.500	 99.126	  0.429
32323	 -0.154	 -0.214	  0.437	  0.098	  0.123	 -9.796	 -0.003	  0.002	  0.002	 29.500	 99.138	 -0.646
32373	 -0.155	 -0.222	  0.439	  0.112	  0.086	 -9.778	 -0.003	  0.002	  0.000	 29.500	 99.131	 -0.018
32423	 -0.154	 -0.226	  0.432	  0.103	  0.093	 -9.747	 -0.003	  0.001	  0.002	 29.500	 99.138	 -0.646
32473	 -0.155	 -0.220	  0.438	  0.069	  0.084	 -9.817	 -0.003	  0.002	  0.002	 29.500	 99.131	 -0.018
32523	 -0.156	 -0.227	  0.440	  0.128	  0.082	 -9.757	 -0.004	  0.003	  0.001	 29.500	 99.138	 -0.646
32573	 -0.155	 -0.226	  0.440	  0.116	  0.074	 -9.778	 -0.003	  0.001	  0.002	 29.500	 99.126	  0.429
32623	 -0.155	 -0.218	  0.436	  0.103	  0.100	 -9.767	 -0.003	  0.002	  0.000	 29.500	 99.142	 -1.004
32673	 -0.154	 -0.228	  0.437	  0.112	  0.093	 -9.801	 -0.003	  0.002	 -0.000	 29.500	 99.126	  0.429
32723	 -0.153	 -0.231	  0.439	  0.118	  0.082	 -9.710	 -0.003	  0.001	  0.002	 29.500	 99.119	  1.056
32773	 -0.154	 -0.229	  0.435	  0.090	  0.110	 -9.759	 -0.002	  0.001	  0.001	 29.500	 99.142	 -1.004
32823	 -0.155	 -0.226	  0.441	  0.107	  0.089	 -9.772	 -0.003	  0.002	  0.001	 29.500	 99.126	  0.429
32873	 -0.153	 -0.233	  0.439	  0.114	  0.098	 -9.778	 -0.003	  0.002	  0.001	 29.500	 99.142	 -1.004
32923	 -0.153	 -0.230	  0.439	  0.116	  0.097	 -9.773	 -0.004	  0.002	  0.001	 29.500	 99.126	  0.429
32973	 -0.156	 -0.230	  0.438	  0.105	  0.083	 -9.760	 -0.003	  0.002	  0.002	 29.500	 99.131	 -0.018
33023	 -0.153	 -0.227	  0.441	  0.116	  0.102	 -9.799	 -0.003	  0.002	  0.001	 29.500	 99.126	  0.429
33073	 -0.154	 -0.223	  0.440	  0.087	  0.092	 -9.812	 -0.003	  0.001	  0.002	 29.500	 99.126	  0.429
33123	 -0.152	 -0.229	  0.438	  0.115	  0.065	 -9.777	 -0.003	  0.003	  0.001	 29.500	 99.131	 -0.018
33173	 -0.153	 -0.229	  0.439	  0.095	  0.084	 -9.786	 -0.002	  0.002	  0.001	 29.500	 99.131	 -0.018
33223	 -0.154	 -0.234	  0.438	  0.105	  0.089	 -9.768	 -0.003	  0.002	  0.002	 29.500	 99.131	 -0.018
33273	 -0.154	 -0.230	  0.435	  0.160	  0.109	 -9.810	 -0.002	  0.001	  0.001	 29.500	 99.126	  0.429
33323	 -0.153	 -0.234	  0.440	  0.019	  0.005	 -9.777	 -0.004	  0.004	  0.002	 29.500	 99.138	 -0.646
33373	 -0.154	 -0.228	  0.436	  0.185	  0.109	 -9.759	 -0.003	  0.002	  0.001	 29.500	 99.142	 -1.004
33423	 -0.155	 -0.229	  0.436	  0.085	  0.062	 -9.758	 -0.003	  0.002	  0.002	 29.500	 99.142	 -1.004
33473	 -0.153	 -0.226	  0.437	  0.090	  0.102	 -9.819	 -0.003	  0.002	  0.001	 29.500	 99.126	  0.429
33523	 -0.157	 -0.230	  0.435	  0.135	  0.099	 -9.783	 -0.003	  0.001	  0.002	 29.500	 99.142	 -1.004
33573	 -0.153	 -0.233	  0.434	  0.092	  0.092	 -9.772	 -0.004	  0.002	  0.001	 29.500	 99.142	 -1.004
33623	 -0.156	 -0.233	  0.437	  0.083	  0.137	 -9.770	 -0.003	  0.002	  0.001	 29.500	 99.131	 -0.018
33673	 -0.156	 -0.234	  0.436	  0.123	  0.068	 -9.790	 -0.003	  0.002	  0.002	 29.500	 99.131	 -0.018
33723	 -0.154	 -0.235	  0.437	  0.074	  0.127	 -9.777	 -0.002	  0.002	  0.001	 29.500	 99.142	 -1.004
33773	 -0.156	 -0.233	  0.438	  0.111	  0.051	 -9.767	 -0.004	  0.003	  0.001	 29.500	 99.142	 -1.004
33823	 -0.155	 -0.234	  0.439	  0.095	  0.100	 -9.750	 -0.003	  0.003	  0.000	 29.500	 99.138	 -0.646
33873	 -0.152	 -0.238	  0.436	  0.096	  0.078	 -9.782	 -0.003	  0.003	  0.003	 29.500	 99.131	 -0.018
33923	 -0.156	 -0.235	  0.436	  0.411	 -0.208	 -9.862	  0.001	  0.001	 -0.003	 29.500	 99.131	 -0.018
33973	 -0.155	 -0.240	  0.443	  0.183	  0.265	 -9.810	 -0.004	  0.001	  0.002	 29.500	 99.131	 -0.018
34023	 -0.154	 -0.236	  0.438	  0.030	  0.063	 -9.962	 -0.002	  0.001	  0.001	 29.500	 99.142	 -1.004
34073	 -0.156	 -0.235	  0.439	  0.217	  0.117	 -9.674	 -0.004	  0.002	  0.002	 29.500	 99.138	 -0.646
34123	 -0.156	 -0.237	  0.442	  0.007	  0.067	 -9.786	 -0.003	  0.000	  0.002	 29.500	 99.142	 -1.004
34173	 -0.156	 -0.243	  0.441	  0.150	  0.096	 -9.810	 -0.005	  0.004	  0.001	 29.500	 99.126	  0.429
34223	 -0.156	 -0.241	  0.440	  0.078	  0.099	 -9.794	 -0.002	  0.002	  0.001	 29.500	 99.119	  1.056
34273	 -0.156	 -0.243	  0.444	  0.093	  0.127	 -9.776	 -0.003	  0.002	  0.001	 29.500	 99.131	 -0.018
34323	 -0.155	 -0.238	  0.444	  0.129	  0.054	 -9.808	 -0.003	  0.002	  0.002	 29.500	 99.131	 -0.018
34373	 -0.154	 -0.238	  0.443	  0.120	  0.062	 -9.771	 -0.003	  0.002	  0.002	 29.500	 99.131	 -0.018
34423	 -0.154	 -0.239	  0.442	  0.126	  0.098	 -9.769	 -0.004	  0.003	  0.000	 29.500	 99.131	 -0.018
34473	 -0.156	 -0.244	  0.443	  0.125	  0.093	 -9.775	 -0.003	  0.000	  0.002	 29.500	 99.131	 -0.018
34523	 -0.155	 -0.241	  0.440	  0.106	  0.076	 -9.777	 -0.003	  0.004	  0.002	 29.500	 99.142	 -1.004
34573	 -0.157	 -0.240	  0.444	  0.121	  0.094	 -9.793	 -0.004	  0.002	  0.002	 29.500	 99.131	 -0.018
34623	 -0.156	 -0.239	  0.448	  0.131	  0.083	 -9.772	 -0.003	  0.001	  0.001	 29.500	 99.131	 -0.018
34673	 -0.156	 -0.242	  0.441	  0.115	  0.108	 -9.787	 -0.003	  0.002	  0.002	 29.500	 99.142	 -1.004
34723	 -0.155	 -0.244	  0.443	  0.129	  0.071	 -9.775	 -0.002	  0.002	  0.001	 29.500	 99.131	 -0.018
34773	 -0.157	 -0.242	  0.440	  0.094	  0.092	 -9.777	 -0.003	  0.003	  0.000	 29.500	 99.135	 -0.377
34823	 -0.157	 -0.245	  0.444	  0.124	  0.088	 -9.788	 -0.002	  0.003	  0.001	 29.500	 99.131	 -0.018
34873	 -0.157	 -0.240	  0.438	  0.098	  0.096	 -9.774	 -0.004	  0.004	  0.001	 29.500	 99.131	 -0.018
34923	 -0.156	 -0.240	  0.442	  0.099	  0.097	 -9.775	 -0.003	  0.000	  0.000	 29.500	 99.142	 -1.004
34973	 -0.156	 -0.243	  0.442	  0.110	  0.088	 -9.745	 -0.002	  0.003	  0.002	 29.500	 99.131	 -0.018
35023	 -0.157	 -0.243	  0.441	  0.098	  0.102	 -9.767	 -0.001	  0.000	  0.001	 29.500	 99.131	 -0.018
35073	 -0.158	 -0.240	  0.441	  0.088	  0.089	 -9.800	 -0.005	  0.003	  0.002	 29.500	 99.131	 -0.018
35123	 -0.157	 -0.242	  0.436	  0.076	  0.092	 -9.760	 -0.003	  0.002	  0.001	 29.500	 99.131	 -0.018
35173	 -0.156	 -0.246	  0.439	  0.074	  0.089	 -9.814	 -0.003	  0.002	 -0.000	 29.500	 99.131	 -0.018
35223	 -0.157	 -0.242	  0.441	  0.121	  0.107	 -9.745	 -0.003	  0.003	  0.002	 29.500	 99.131	 -0.018
35273	 -0.160	 -0.250	  0.441	  0.086	  0.117	 -9.782	 -0.002	  0.002	  0.001	 29.500	 99.131	 -0.018
35323	 -0.155	 -0.245	  0.439	  0.120	  0.078	 -9.772	 -0.004	  0.002	  0.001	 29.500	 99.131	 -0.018
35373	 -0.155	 -0.242	  0.440	  0.123	  0.089	 -9.769	 -0.003	  0.003	  0.001	 29.500	 99.131	 -0.018
35422	 -0.160	 -0.247	  0.438	  0.100	  0.106	 -9.778	 -0.003	  0.002	  0.001	 29.500	 99.135	 -0.377
35472	 -0.157	 -0.253	  0.440	  0.096	  0.118	 -9.761	 -0.003	  0.003	  0.001	 29.500	 99.131	 -0.018
35522	 -0.160	 -0.242	  0.440	  0.129	  0.094	 -9.772	 -0.004	 -0.001	  0.001	 29.500	 99.131	 -0.018
35572	 -0.158	 -0.246	  0.445	  0.099	  0.103	 -9.765	 -0.003	  0.001	  0.001	 29.500	 99.131	 -0.018
35622	 -0.159	 -0.248	  0.445	  0.108	  0.078	 -9.787	 -0.002	  0.003	  0.001	 29.500	 99.131	 -0.018
35672	 -0.160	 -0.243	  0.442	  0.109	  0.068	 -9.770	 -0.002	  0.001	  0.002	 29.500	 99.135	 -0.377
35722	 -0.160	 -0.246	  0.441	  0.114	  0.112	 -9.752	 -0.002	  0.003	  0.001	 29.500	 99.135	 -0.377
35772	 -0.161	 -0.243	  0.440	  0.092	  0.101	 -9.767	 -0.002	  0.003	  0.001	 29.500	 99.135	 -0.377
35822	 -0.159	 -0.244	  0.439	  0.105	  0.091	 -9.765	 -0.002	  0.002	  0.001	 29.500	 99.142	 -1.004
35872	 -0.161	 -0.243	  0.437	  0.112	  0.064	 -9.734	 -0.003	  0.002	  0.001	 29.500	 99.146	 -1.363
35922	 -0.160	 -0.244	  0.444	  0.124	  0.111	 -9.774	 -0.003	  0.002	  0.001	 29.500	 99.135	 -0.377
35972	 -0.163	 -0.243	  0.438	  0.110	  0.096	 -9.780	 -0.002	  0.002	  0.002	 29.500	 99.123	  0.698
36022	 -0.162	 -0.242	  0.438	  0.097	  0.086	 -9.764	 -0.002	  0.003	  0.001	 29.500	 99.146	 -1.363
36072	 -0.159	 -0.242	  0.439	  0.123	  0.099	 -9.759	 -0.003	  0.002	  0.001	 29.500	 99.131	 -0.018
36122	 -0.159	 -0.244	  0.439	  0.100	  0.119	 -9.751	 -0.003	  0.004	 -0.001	 29.500	 99.123	  0.698
36172	 -0.159	 -0.243	  0.438	  0.094	  0.079	 -9.779	 -0.003	  0.002	  0.001	 29.500	 99.123	  0.698
36222	 -0.159	 -0.240	  0.441	  0.099	  0.093	 -9.772	 -0.003	  0.000	  0.001	 29.500	 99.146	 -1.363
36272	 -0.160	 -0.238	  0.442	  0.114	  0.094	 -9.762	 -0.003	  0.001	  0.001	 29.500	 99.131	 -0.018
36322	 -0.158	 -0.245	  0.440	  0.105	  0.097	 -9.775	 -0.004	  0.003	  0.001	 29.500	 99.135	 -0.377
36372	 -0.160	 -0.245	  0.439	  0.109	  0.077	 -9.788	 -0.003	  0.002	  0.001	 29.500	 99.123	  0.698
36423	 -0.159	 -0.242	  0.438	  0.129	  0.093	 -9.754	 -0.003	  0.002	  0.000	 29.500	 99.135	 -0.377
36472	 -0.160	 -0.247	  0.438	  0.135	  0.112	 -9.796	 -0.003	  0.002	  0.001	 29.500	 99.135	 -0.377
36523	 -0.158	 -0.241	  0.439	  0.113	  0.073	 -9.737	 -0.003	  0.002	  0.001	 29.500	 99.123	  0.698
36572	 -0.160	 -0.242	  0.440	  0.122	  0.082	 -9.764	 -0.002	  0.001	  0.001	 29.500	 99.135	 -0.377
36623	 -0.162	 -0.242	  0.438	  0.090	  0.093	 -9.772	 -0.003	  0.003	  0.001	 29.500	 99.135	 -0.377
36673	 -0.159	 -0.241	  0.437	  0.121	  0.098	 -9.813	 -0.004	  0.001	  0.000	 29.500	 99.142	 -1.004
36723	 -0.160	 -0.241	  0.433	  0.114	  0.086	 -9.779	 -0.003	  0.001	  0.001	 29.500	 99.135	 -0.377
36773	 -0.157	 -0.243	  0.438	  0.114	  0.105	 -9.778	 -0.003	  0.003	  0.001	 29.500	 99.135	 -0.377
36823	 -0.159	 -0.240	  0.435	  0.105	  0.072	 -9.771	 -0.004	  0.002	  0.001	 29.500	 99.135	 -0.377
36873	 -0.159	 -0.239	  0.438	  0.097	  0.091	 -9.768	 -0.003	  0.001	  0.001	 29.500	 99.146	 -1.363
36923	 -0.157	 -0.241	  0.438	  0.095	  0.096	 -9.776	 -0.003	  0.002	  0.001	 29.500	 99.123	  0.698
36973	 -0.158	 -0.241	  0.442	  0.105	  0.088	 -9.748	 -0.004	  0.001	  0.000	 29.500	 99.135	 -0.377
37023	 -0.160	 -0.240	  0.440	  0.106	  0.103	 -9.792	 -0.003	  0.001	  0.002	 29.500	 99.135	 -0.377
37073	 -0.162	 -0.236	  0.440	  0.102	  0.083	 -9.783	 -0.004	  0.001	  0.001	 29.500	 99.123	  0.698
37123	 -0.158	 -0.237	  0.445	  0.098	  0.073	 -9.795	 -0.003	  0.001	  0.001	 29.500	 99.135	 -0.377
37173	 -0.160	 -0.230	  0.442	  0.102	  0.110	 -9.787	 -0.003	  0.002	  0.001	 29.500	 99.135	 -0.377
37223	 -0.160	 -0.235	  0.450	  0.094	  0.081	 -9.789	 -0.005	  0.003	  0.001	 29.500	 99.135	 -0.377
37273	 -0.156	 -0.237	  0.445	  0.085	  0.074	 -9.789	 -0.004	  0.002	  0.001	 29.500	 99.123	  0.698
37323	 -0.156	 -0.234	  0.442	  0.120	  0.080	 -9.795	 -0.002	  0.001	  0.000	 29.500	 99.135	 -0.377
37373	 -0.158	 -0.235	  0.444	  0.103	  0.093	 -9.785	 -0.003	  0.001	  0.001	 29.500	 99.135	 -0.377
37423	 -0.158	 -0.239	  0.444	  0.123	  0.090	 -9.760	 -0.003	  0.002	  0.001	 29.500	 99.123	  0.698
37473	 -0.157	 -0.240	  0.442	  0.113	  0.101	 -9.761	 -0.003	  0.001	  0.000	 29.500	 99.123	  0.698
37523	 -0.158	 -0.238	  0.447	  0.099	  0.083	 -9.778	 -0.004	  0.002	  0.000	 29.500	 99.135	 -0.377
37573	 -0.159	 -0.237	  0.446	  0.107	  0.093	 -9.785	 -0.003	  0.003	  0.001	 29.500	 99.128	  0.250
37623	 -0.160	 -0.235	  0.446	  0.108	  0.095	 -9.786	 -0.004	  0.002	  0.002	 29.500	 99.135	 -0.377
37673	 -0.158	 -0.240	  0.445	  0.096	  0.090	 -9.772	 -0.002	  0.002	  0.001	 29.500	 99.135	 -0.377
37723	 -0.158	 -0.244	  0.444	  0.093	  0.110	 -9.812	 -0.004	  0.002	  0.000	 29.500	 99.123	  0.698
37773	 -0.157	 -0.240	  0.444	  0.113	  0.089	 -9.742	 -0.003	  0.002	  0.001	 29.500	 99.135	 -0.377
37823	 -0.160	 -0.236	  0.442	  0.104	  0.096	 -9.777	 -0.002	  0.002	  0.001	 29.500	 99.135	 -0.377
37873	 -0.160	 -0.244	  0.446	  0.119	  0.076	 -9.790	 -0.003	  0.002	  0.001	 29.500	 99.135	 -0.377
37923	 -0.161	 -0.243	  0.442	  0.079	  0.102	 -9.772	 -0.002	  0.002	  0.000	 29.500	 99.123	  0.698
37973	 -0.161	 -0.244	  0.445	  0.125	  0.079	 -9.757	 -0.003	  0.002	  0.002	 29.500	 99.135	 -0.377
38023	 -0.160	 -0.236	  0.445	  0.106	  0.091	 -9.775	 -0.004	  0.003	  0.001	 29.500	 99.135	 -0.377
38073	 -0.159	 -0.242	  0.438	  0.140	  0.073	 -9.773	 -0.004	  0.002	  0.001	 29.500	 99.139	 -0.736
38123	 -0.162	 -0.243	  0.446	  0.107	  0.102	 -9.752	 -0.003	  0.003	  0.001	 29.500	 99.123	  0.698
38173	 -0.161	 -0.247	  0.447	  0.107	  0.089	 -9.813	 -0.003	  0.001	  0.001	 29.500	 99.123	  0.698
38223	 -0.161	 -0.247	  0.446	  0.136	  0.108	 -9.774	 -0.003	  0.001	  0.001	 29.500	 99.135	 -0.377
38273	 -0.159	 -0.244	  0.445	  0.103	  0.087	 -9.767	 -0.003	  0.003	  0.001	 29.500	 99.123	  0.698
38323	 -0.160	 -0.247	  0.445	  0.101	  0.093	 -9.748	 -0.004	  0.003	  0.002	 29.500	 99.123	  0.698
38373	 -0.157	 -0.243	  0.444	  0.135	  0.101	 -9.765	 -0.003	  0.002	  0.001	 29.500	 99.135	 -0.377
38423	 -0.158	 -0.245	  0.440	  0.103	  0.095	 -9.787	 -0.003	  0.003	 -0.000	 29.500	 99.123	  0.698
38473	 -0.158	 -0.241	  0.444	  0.114	  0.101	 -9.782	 -0.002	  0.002	  0.002	 29.500	 99.123	  0.698
38523	 -0.161	 -0.242	  0.446	  0.096	  0.097	 -9.754	 -0.004	  0.002	  0.002	 29.500	 99.139	 -0.736
38573	 -0.159	 -0.245	  0.440	  0.087	  0.083	 -9.776	 -0.003	  0.003	  0.002	 29.500	 99.128	  0.250
38623	 -0.161	 -0.246	  0.446	  0.088	  0.096	 -9.770	 -0.003	  0.002	  0.002	 29.500	 99.139	 -0.736
38673	 -0.159	 -0.240	  0.444	  0.112	  0.091	 -9.790	 -0.004	  0.002	  0.003	 29.500	 99.139	 -0.736
38723	 -0.162	 -0.243	  0.446	  0.115	  0.094	 -9.773	 -0.003	  0.002	  0.002	 29.500	 99.139	 -0.736
38773	 -0.161	 -0.243	  0.444	  0.112	  0.085	 -9.774	 -0.004	  0.002	  0.001	 29.500	 99.139	 -0.736
38823	 -0.161	 -0.246	  0.441	  0.101	  0.105	 -9.804	 -0.004	  0.002	  0.001	 29.500	 99.135	 -0.377
38874	 -0.160	 -0.245	  0.442	  0.089	  0.082	 -9.776	 -0.002	  0.002	  0.001	 29.500	 99.128	  0.250
38923	 -0.161	 -0.244	  0.442	  0.106	  0.093	 -9.781	 -0.003	  0.001	  0.001	 29.500	 99.139	 -0.736
38973	 -0.159	 -0.248	  0.442	  0.097	  0.079	 -9.786	 -0.004	  0.002	  0.001	 29.500	 99.139	 -0.736
39023	 -0.161	 -0.241	  0.442	  0.120	  0.086	 -9.743	 -0.004	  0.003	  0.002	 29.500	 99.139	 -0.736
39073	 -0.161	 -0.250	  0.444	  0.100	  0.072	 -9.756	 -0.003	  0.002	  0.002	 29.500	 99.139	 -0.736
39123	 -0.159	 -0.244	  0.440	  0.099	  0.093	 -9.768	 -0.003	  0.002	  0.001	 29.500	 99.135	 -0.377
39173	 -0.163	 -0.245	  0.440	  0.117	  0.094	 -9.742	 -0.003	  0.002	  0.001	 29.500	 99.128	  0.250
39223	 -0.159	 -0.244	  0.439	  0.127	  0.107	 -9.780	 -0.004	  0.001	 -0.000	 29.500	 99.139	 -0.736
39273	 -0.161	 -0.241	  0.438	  0.107	  0.093	 -9.757	 -0.004	  0.001	  0.001	 29.500	 99.128	  0.250
39323	 -0.161	 -0.245	  0.440	  0.122	  0.073	 -9.768	 -0.004	  0.002	  0.000	 29.500	 99.128	  0.250
39373	 -0.160	 -0.241	  0.441	  0.103	  0.086	 -9.796	 -0.003	  0.003	  0.001	 29.500	 99.139	 -0.736
39423	 -0.164	 -0.243	  0.439	  0.109	  0.079	 -9.808	 -0.004	  0.002	  0.001	 29.500	 99.123	  0.698
39473	 -0.161	 -0.242	  0.440	  0.123	  0.103	 -9.744	 -0.003	  0.002	  0.001	 29.500	 99.139	 -0.736
39523	 -0.159	 -0.243	  0.438	  0.119	  0.107	 -9.774	 -0.004	  0.001	  0.001	 29.500	 99.123	  0.698
39573	 -0.160	 -0.242	  0.437	  0.103	  0.087	 -9.765	 -0.003	  0.002	  0.001	 29.500	 99.139	 -0.736
39623	 -0.161	 -0.244	  0.440	  0.107	  0.111	 -9.774	 -0.003	  0.002	  0.000	 29.500	 99.139	 -0.736
39673	 -0.161	 -0.240	  0.437	  0.096	  0.098	 -9.763	 -0.002	  0.002	  0.002	 29.500	 99.128	  0.250
39723	 -0.162	 -0.243	  0.437	  0.090	  0.095	 -9.782	 -0.003	  0.001	 -0.000	 29.500	 99.139	 -0.736
39773	 -0.161	 -0.235	  0.435	  0.134	  0.094	 -9.783	 -0.003	  0.003	  0.001	 29.500	 99.139	 -0.736
39823	 -0.160	 -0.241	  0.436	  0.110	  0.101	 -9.751	 -0.003	  0.001	  0.002	 29.500	 99.128	  0.250
39873	 -0.163	 -0.236	  0.438	  0.128	  0.071	 -9.775	 -0.004	  0.003	  0.001	 29.500	 99.128	  0.250
39923	 -0.159	 -0.236	  0.436	  0.106	  0.111	 -9.782	 -0.003	  0.002	  0.000	 29.500	 99.128	  0.250
39973	 -0.161	 -0.236	  0.435	  0.092	  0.078	 -9.786	 -0.004	  0.001	  0.001	 29.500	 99.143	 -1.094
40023	 -0.162	 -0.236	  0.437	  0.105	  0.096	 -9.745	 -0.003	  0.002	  0.001	 29.500	 99.139	 -0.736
40073	 -0.164	 -0.236	  0.438	  0.111	  0.092	 -9.840	 -0.004	  0.002	  0.002	 29.500	 99.128	  0.250
40123	 -0.162	 -0.237	  0.438	  0.100	  0.107	 -9.751	 -0.003	  0.001	  0.001	 29.500	 99.128	  0.250
40173	 -0.161	 -0.235	  0.438	  0.119	  0.111	 -9.763	 -0.002	  0.003	  0.000	 29.500	 99.128	  0.250
40223	 -0.159	 -0.238	  0.439	  0.110	  0.093	 -9.774	 -0.003	  0.001	  0.001	 29.500	 99.128	  0.250
40273	 -0.159	 -0.243	  0.439	  0.102	  0.081	 -9.795	 -0.003	  0.002	  0.001	 29.500	 99.139	 -0.736
40323	 -0.158	 -0.241	  0.435	  0.104	  0.080	 -9.771	 -0.004	  0.000	  0.002	 29.500	 99.128	  0.250
40373	 -0.158	 -0.243	  0.436	  0.118	  0.082	 -9.754	 -0.002	  0.003	  0.001	 29.500	 99.139	 -0.736
40423	 -0.154	 -0.246	  0.434	  0.108	  0.107	 -9.791	 -0.004	  0.002	  0.002	 29.500	 99.139	 -0.736
40473	 -0.155	 -0.247	  0.429	  0.101	  0.097	 -9.779	 -0.003	  0.002	  0.002	 29.500	 99.139	 -0.736
40523	 -0.151	 -0.245	  0.432	  0.081	  0.100	 -9.794	 -0.003	  0.002	  0.001	 29.500	 99.128	  0.250
40573	 -0.150	 -0.249	  0.435	  0.118	  0.070	 -9.754	 -0.003	  0.002	  0.001	 29.500	 99.139	 -0.736
40623	 -0.150	 -0.245	  0.436	  0.098	  0.115	 -9.760	 -0.003	  0.001	  0.000	 29.500	 99.132	 -0.109
40673	 -0.152	 -0.244	  0.438	  0.089	  0.116	 -9.782	 -0.003	  0.003	  0.001	 29.500	 99.128	  0.250
40723	 -0.150	 -0.245	  0.432	  0.117	  0.099	 -9.795	 -0.002	  0.002	  0.001	 29.500	 99.139	 -0.736
40773	 -0.153	 -0.248	  0.435	  0.116	  0.084	 -9.724	 -0.003	  0.003	  0.001	 29.500	 99.143	 -1.094
40823	 -0.150	 -0.250	  0.436	  0.109	  0.120	 -9.741	 -0.003	  0.002	  0.001	 29.500	 99.128	  0.250
40873	 -0.154	 -0.248	  0.438	  0.121	  0.089	 -9.763	 -0.003	  0.001	 -0.000	 29.500	 99.139	 -0.736
40923	 -0.154	 -0.250	  0.436	  0.119	  0.093	 -9.780	 -0.005	  0.002	  0.001	 29.500	 99.132	 -0.109
40973	 -0.157	 -0.247	  0.433	  0.114	  0.121	 -9.753	 -0.003	  0.002	  0.002	 29.500	 99.139	 -0.736
41023	 -0.153	 -0.246	  0.438	  0.114	  0.082	 -9.783	 -0.003	  0.002	 -0.000	 29.500	 99.128	  0.250
41073	 -0.153	 -0.247	  0.435	  0.111	  0.098	 -9.794	 -0.003	  0.002	  0.001	 29.500	 99.128	  0.250
41123	 -0.155	 -0.248	  0.437	  0.095	  0.103	 -9.752	 -0.003	  0.001	  0.002	 29.500	 99.132	 -0.109
41173	 -0.156	 -0.245	  0.437	  0.126	  0.102	 -9.806	 -0.003	  0.002	  0.000	 29.500	 99.132	 -0.109
41223	 -0.159	 -0.245	  0.436	  0.078	  0.081	 -9.800	 -0.003	  0.002	  0.001	 29.500	 99.139	 -0.736
41273	 -0.159	 -0.246	  0.440	  0.124	  0.096	 -9.784	 -0.004	  0.002	  0.002	 29.500	 99.128	  0.250
41323	 -0.159	 -0.245	  0.441	  0.090	  0.097	 -9.771	 -0.003	  0.001	  0.001	 29.500	 99.132	 -0.109
41373	 -0.159	 -0.238	  0.444	  0.112	  0.089	 -9.782	 -0.001	  0.001	  0.001	 29.500	 99.128	  0.250
41423	 -0.158	 -0.240	  0.444	  0.122	  0.111	 -9.809	 -0.004	  0.002	  0.002	 29.500	 99.132	 -0.109
41473	 -0.159	 -0.240	  0.444	  0.120	  0.088	 -9.772	 -0.003	  0.002	  0.002	 29.500	 99.139	 -0.736
41523	 -0.160	 -0.244	  0.444	  0.124	  0.087	 -9.754	 -0.004	  0.003	  0.002	 29.500	 99.132	 -0.109
41573	 -0.158	 -0.245	  0.439	  0.114	  0.084	 -9.783	 -0.004	  0.002	  0.001	 29.500	 99.128	  0.250
41624	 -0.161	 -0.243	  0.435	  0.108	  0.094	 -9.725	 -0.002	  0.001	  0.002	 29.500	 99.132	 -0.109
41673	 -0.161	 -0.242	  0.445	  0.116	  0.098	 -9.774	 -0.003	  0.003	  0.001	 29.500	 99.132	 -0.109
41724	 -0.158	 -0.241	  0.441	  0.102	  0.118	 -9.748	 -0.002	  0.002	  0.001	 29.500	 99.132	 -0.109
41773	 -0.162	 -0.245	  0.438	  0.096	  0.098	 -9.786	 -0.004	  0.003	  0.000	 29.500	 99.132	 -0.109
41824	 -0.162	 -0.245	  0.441	  0.106	  0.072	 -9.792	 -0.003	  0.003	  0.000	 29.500	 99.121	  0.877
41873	 -0.164	 -0.246	  0.443	  0.103	  0.089	 -9.785	 -0.004	  0.003	  0.000	 29.500	 99.143	 -1.094
41924	 -0.163	 -0.246	  0.443	  0.105	  0.085	 -9.798	 -0.004	  0.003	  0.001	 29.500	 99.143	 -1.094
41974	 -0.165	 -0.246	  0.433	  0.099	  0.087	 -9.756	 -0.003	  0.002	  0.001	 29.500	 99.132	 -0.109
42024	 -0.165	 -0.254	  0.442	  0.096	  0.097	 -9.803	 -0.002	  0.002	  0.001	 29.500	 99.143	 -1.094
42074	 -0.165	 -0.252	  0.447	  0.093	  0.088	 -9.771	 -0.004	  0.002	  0.001	 29.500	 99.132	 -0.109
42124	 -0.163	 -0.256	  0.447	  0.113	  0.112	 -9.760	 -0.003	  0.003	  0.001	 29.500	 99.132	 -0.109
42174	 -0.162	 -0.255	  0.450	  0.106	  0.080	 -9.767	 -0.003	  0.003	  0.001	 29.500	 99.143	 -1.094
42224	 -0.162	 -0.259	  0.451	  0.110	  0.105	 -9.750	 -0.003	  0.003	  0.001	 29.500	 99.132	 -0.109
42274	 -0.161	 -0.251	  0.447	  0.118	  0.099	 -9.789	 -0.003	  0.001	  0.001	 29.500	 99.132	 -0.109
42324	 -0.163	 -0.251	  0.458	  0.085	  0.096	 -9.777	 -0.003	  0.002	  0.001	 29.500	 99.132	 -0.109
42374	 -0.163	 -0.248	  0.452	  0.105	  0.093	 -9.748	 -0.004	  0.002	  0.001	 29.500	 99.132	 -0.109
42424	 -0.161	 -0.243	  0.458	  0.102	  0.106	 -9.780	 -0.003	  0.003	  0.002	 29.500	 99.132	 -0.109
42474	 -0.159	 -0.248	  0.458	  0.110	  0.097	 -9.755	 -0.003	  0.003	  0.001	 29.500	 99.132	 -0.109
42524	 -0.161	 -0.249	  0.455	  0.088	  0.104	 -9.769	 -0.003	  0.002	  0.001	 29.500	 99.132	 -0.109
42574	 -0.159	 -0.247	  0.451	  0.111	  0.098	 -9.781	 -0.003	  0.001	  0.002	 29.500	 99.132	 -0.109
42624	 -0.157	 -0.249	  0.453	  0.122	  0.086	 -9.757	 -0.003	  0.003	  0.001	 29.500	 99.132	 -0.109
42674	 -0.157	 -0.244	  0.449	  0.121	  0.107	 -9.754	 -0.003	  0.002	  0.002	 29.500	 99.132	 -0.109
42724	 -0.158	 -0.241	  0.451	  0.114	  0.075	 -9.795	 -0.003	  0.001	  0.000	 29.500	 99.143	 -1.094
42774	 -0.156	 -0.245	  0.449	  0.100	  0.104	 -9.754	 -0.004	  0.001	  0.002	 29.500	 99.143	 -1.094
42824	 -0.155	 -0.246	  0.451	  0.107	  0.092	 -9.785	 -0.003	  0.001	  0.000	 29.500	 99.132	 -0.109
42874	 -0.156	 -0.246	  0.452	  0.095	  0.093	 -9.755	 -0.002	  0.002	  0.002	 29.500	 99.121	  0.877
42924	 -0.156	 -0.235	  0.453	  0.123	  0.093	 -9.767	 -0.002	  0.002	  0.001	 29.500	 99.132	 -0.109
42974	 -0.156	 -0.246	  0.455	  0.093	  0.107	 -9.770	 -0.002	  0.002	  0.001	 29.600	 99.143	 -1.094
43024	 -0.154	 -0.243	  0.448	  0.107	  0.122	 -9.725	 -0.003	  0.002	  0.002	 29.500	 99.132	 -0.109
43074	 -0.154	 -0.242	  0.446	  0.116	  0.099	 -9.752	 -0.003	  0.002	  0.002	 29.500	 99.143	 -1.094
43124	 -0.154	 -0.242	  0.453	  0.116	  0.069	 -9.789	 -0.003	  0.003	  0.002	 29.500	 99.143	 -1.094
43174	 -0.155	 -0.241	  0.448	  0.100	  0.110	 -9.780	 -0.003	  0.003	  0.001	 29.500	 99.143	 -1.094
43224	 -0.158	 -0.239	  0.449	  0.114	  0.111	 -9.774	 -0.003	  0.001	  0.000	 29.500	 99.121	  0.877
43274	 -0.155	 -0.241	  0.451	  0.076	  0.101	 -9.768	 -0.003	  0.001	  0.001	 29.600	 99.132	 -0.109
43324	 -0.157	 -0.240	  0.447	  0.131	  0.099	 -9.769	 -0.003	  0.001	  0.001	 29.500	 99.143	 -1.094
43374	 -0.156	 -0.232	  0.449	  0.104	  0.093	 -9.756	 -0.002	  0.002	  0.001	 29.500	 99.132	 -0.109
43424	 -0.156	 -0.239	  0.448	  0.098	  0.088	 -9.806	 -0.003	  0.002	  0.001	 29.500	 99.132	 -0.109
43474	 -0.157	 -0.241	  0.449	  0.086	  0.080	 -9.753	 -0.003	  0.003	  0.001	 29.600	 99.136	 -0.467
43524	 -0.155	 -0.239	  0.448	  0.103	  0.104	 -9.771	 -0.004	  0.002	  0.001	 29.500	 99.132	 -0.109
43574	 -0.155	 -0.234	  0.446	  0.094	  0.080	 -9.791	 -0.003	  0.004	  0.002	 29.500	 99.121	  0.877
43623	 -0.155	 -0.240	  0.447	  0.122	  0.077	 -9.773	 -0.003	  0.002	  0.002	 29.500	 99.132	 -0.109
43673	 -0.153	 -0.242	  0.444	  0.103	  0.107	 -9.739	 -0.003	  0.002	  0.002	 29.500	 99.121	  0.877
43723	 -0.153	 -0.234	  0.446	  0.089	  0.079	 -9.741	 -0.003	  0.002	  0.001	 29.500	 99.132	 -0.109
43774	 -0.154	 -0.234	  0.447	  0.116	  0.089	 -9.746	 -0.002	  0.002	  0.000	 29.500	 99.143	 -1.094
43823	 -0.155	 -0.238	  0.446	  0.115	  0.091	 -9.766	 -0.003	  0.003	  0.001	 29.600	 99.136	 -0.467
43874	 -0.154	 -0.237	  0.447	  0.100	  0.092	 -9.764	 -0.003	  0.002	  0.000	 29.500	 99.132	 -0.109
43923	 -0.156	 -0.242	  0.447	  0.144	  0.109	 -9.765	 -0.003	  0.002	  0.002	 29.600	 99.125	  0.519
43973	 -0.155	 -0.243	  0.447	  0.101	  0.096	 -9.760	 -0.004	  0.002	  0.002	 29.600	 99.136	 -0.467
44023	 -0.154	 -0.239	  0.445	  0.104	  0.116	 -9.778	 -0.004	  0.003	  0.002	 29.600	 99.125	  0.519
44073	 -0.153	 -0.244	  0.445	  0.096	  0.097	 -9.810	 -0.004	  0.001	  0.001	 29.500	 99.132	 -0.109
44123	 -0.154	 -0.242	  0.445	  0.096	  0.089	 -9.778	 -0.003	  0.001	  0.002	 29.500	 99.143	 -1.094
44173	 -0.155	 -0.245	  0.442	  0.119	  0.087	 -9.775	 -0.003	  0.002	 -0.000	 29.600	 99.132	 -0.109
44223	 -0.155	 -0.240	  0.446	  0.100	  0.099	 -9.784	 -0.003	  0.001	  0.002	 29.600	 99.125	  0.519
44273	 -0.156	 -0.237	  0.448	  0.116	  0.108	 -9.774	 -0.003	  0.002	  0.001	 29.500	 99.121	  0.877
44323	 -0.156	 -0.243	  0.440	  0.113	  0.098	 -9.757	 -0.003	  0.002	  0.002	 29.500	 99.143	 -1.094
44373	 -0.152	 -0.236	  0.446	  0.116	  0.070	 -9.753	 -0.003	  0.002	  0.001	 29.600	 99.132	 -0.109
44423	 -0.153	 -0.243	  0.450	  0.109	  0.115	 -9.781	 -0.003	  0.003	 -0.000	 29.600	 99.136	 -0.467
44473	 -0.155	 -0.243	  0.446	  0.113	  0.099	 -9.753	 -0.003	  0.003	  0.002	 29.600	 99.136	 -0.467
44523	 -0.158	 -0.237	  0.445	  0.100	  0.091	 -9.761	 -0.004	  0.003	  0.002	 29.600	 99.125	  0.519
44573	 -0.154	 -0.239	  0.448	  0.090	  0.080	 -9.771	 -0.002	  0.002	  0.001	 29.600	 99.136	 -0.467
44623	 -0.157	 -0.239	  0.446	  0.093	  0.106	 -9.799	 -0.002	  0.002	  0.000	 29.600	 99.132	 -0.109
44673	 -0.157	 -0.240	  0.448	  0.114	  0.085	 -9.820	 -0.003	  0.002	  0.001	 29.600	 99.125	  0.519
44723	 -0.156	 -0.243	  0.447	  0.125	  0.065	 -9.761	 -0.002	  0.003	  0.001	 29.600	 99.143	 -1.094
44773	 -0.154	 -0.243	  0.446	  0.096	  0.096	 -9.760	 -0.004	  0.002	  0.001	 29.600	 99.132	 -0.109
44823	 -0.153	 -0.245	  0.446	  0.108	  0.086	 -9.805	 -0.004	  0.002	  0.002	 29.600	 99.136	 -0.467
44873	 -0.155	 -0.241	  0.444	  0.087	  0.090	 -9.783	 -0.003	  0.004	  0.001	 29.600	 99.136	 -0.467
44923	 -0.155	 -0.242	  0.442	  0.102	  0.091	 -9.787	 -0.004	  0.002	  0.002	 29.600	 99.147	 -1.453
44973	 -0.154	 -0.235	  0.445	  0.114	  0.077	 -9.788	 -0.002	  0.000	  0.001	 29.600	 99.125	  0.519
45023	 -0.155	 -0.240	  0.447	  0.121	  0.075	 -9.779	 -0.003	  0.003	  0.003	 29.600	 99.136	 -0.467
45073	 -0.155	 -0.242	  0.442	  0.090	  0.084	 -9.752	 -0.003	  0.000	 -0.000	 29.600	 99.125	  0.519
45123	 -0.152	 -0.244	  0.449	  0.092	  0.085	 -9.779	 -0.004	  0.001	  0.001	 29.600	 99.136	 -0.467
45173	 -0.155	 -0.243	  0.445	  0.111	  0.079	 -9.737	 -0.003	  0.002	  0.001	 29.600	 99.136	 -0.467
45223	 -0.154	 -0.239	  0.447	  0.115	  0.093	 -9.797	 -0.003	  0.003	  0.001	 29.600	 99.125	  0.519
45273	 -0.154	 -0.243	  0.447	  0.107	  0.083	 -9.792	 -0.003	  0.003	  0.001	 29.600	 99.136	 -0.467
45323	 -0.155	 -0.243	  0.446	  0.111	  0.088	 -9.761	 -0.004	  0.002	  0.002	 29.600	 99.125	  0.519
45373	 -0.151	 -0.244	  0.445	  0.094	  0.095	 -9.763	 -0.002	  0.002	  0.001	 29.600	 99.136	 -0.467
45423	 -0.154	 -0.236	  0.445	  0.117	  0.086	 -9.781	 -0.003	  0.002	  0.002	 29.600	 99.136	 -0.467
45473	 -0.155	 -0.243	  0.445	  0.083	  0.088	 -9.786	 -0.004	  0.001	 -0.000	 29.600	 99.136	 -0.467
45523	 -0.153	 -0.242	  0.445	  0.104	  0.095	 -9.790	 -0.003	  0.003	  0.001	 29.600	 99.136	 -0.467
45573	 -0.152	 -0.243	  0.445	  0.083	  0.072	 -9.759	 -0.003	  0.002	  0.001	 29.600	 99.136	 -0.467
45623	 -0.154	 -0.240	  0.448	  0.106	  0.088	 -9.767	 -0.003	  0.002	 -0.000	 29.600	 99.136	 -0.467
45673	 -0.153	 -0.245	  0.445	  0.086	  0.084	 -9.790	 -0.003	  0.002	  0.000	 29.600	 99.136	 -0.467
45723	 -0.156	 -0.244	  0.444	  0.118	  0.090	 -9.792	 -0.003	  0.002	  0.001	 29.600	 99.136	 -0.467
45773	 -0.154	 -0.238	  0.451	  0.092	  0.071	 -9.762	 -0.003	  0.003	  0.001	 29.600	 99.125	  0.519
45823	 -0.153	 -0.243	  0.444	  0.071	  0.098	 -9.804	 -0.003	  0.003	  0.002	 29.600	 99.136	 -0.467
45873	 -0.153	 -0.239	  0.446	  0.105	  0.086	 -9.773	 -0.004	  0.003	  0.001	 29.600	 99.147	 -1.453
45923	 -0.153	 -0.244	  0.447	  0.123	  0.081	 -9.750	 -0.005	  0.002	  0.001	 29.600	 99.136	 -0.467
45973	 -0.152	 -0.242	  0.445	  0.123	  0.078	 -9.775	 -0.003	  0.002	  0.002	 29.600	 99.136	 -0.467
46023	 -0.154	 -0.246	  0.447	  0.105	  0.095	 -9.787	 -0.003	  0.002	  0.002	 29.600	 99.125	  0.519
46073	 -0.154	 -0.242	  0.443	  0.123	  0.099	 -9.747	 -0.002	  0.001	  0.001	 29.600	 99.136	 -0.467
46123	 -0.155	 -0.242	  0.448	  0.111	  0.098	 -9.766	 -0.002	  0.002	  0.002	 29.600	 99.140	 -0.825
46173	 -0.153	 -0.241	  0.443	  0.089	  0.098	 -9.803	 -0.002	  0.003	  0.000	 29.600	 99.136	 -0.467
46223	 -0.154	 -0.242	  0.444	  0.084	  0.096	 -9.776	 -0.003	  0.002	  0.001	 29.600	 99.136	 -0.467
46273	 -0.154	 -0.237	  0.446	  0.109	  0.088	 -9.734	 -0.003	  0.002	  0.002	 29.600	 99.136	 -0.467
46323	 -0.155	 -0.244	  0.447	  0.126	  0.081	 -9.756	 -0.003	  0.002	  0.002	 29.600	 99.136	 -0.467
46373	 -0.152	 -0.245	  0.447	  0.098	  0.092	 -9.745	 -0.004	  0.003	  0.001	 29.600	 99.136	 -0.467
46423	 -0.155	 -0.238	  0.448	  0.106	  0.097	 -9.765	 -0.003	  0.003	 -0.000	 29.600	 99.136	 -0.467
46473	 -0.152	 -0.243	  0.450	  0.106	  0.086	 -9.791	 -0.002	  0.003	  0.001	 29.600	 99.125	  0.519
46523	 -0.152	 -0.245	  0.444	  0.110	  0.090	 -9.810	 -0.002	  0.002	  0.002	 29.600	 99.125	  0.519
46573	 -0.152	 -0.246	  0.449	  0.110	  0.082	 -9.760	 -0.002	  0.002	  0.001	 29.600	 99.136	 -0.467
46624	 -0.156	 -0.243	  0.443	  0.122	  0.096	 -9.785	 -0.004	  0.002	  0.001	 29.600	 99.136	 -0.467
46673	 -0.152	 -0.243	  0.447	  0.117	  0.090	 -9.776	 -0.003	  0.001	  0.001	 29.600	 99.129	  0.160
46723	 -0.155	 -0.239	  0.446	  0.088	  0.096	 -9.764	 -0.003	  0.002	  0.002	 29.600	 99.129	  0.160
46773	 -0.153	 -0.242	  0.447	  0.087	  0.106	 -9.783	 -0.003	  0.002	  0.001	 29.600	 99.125	  0.519
46823	 -0.154	 -0.238	  0.446	  0.107	  0.075	 -9.816	 -0.003	  0.002	  0.002	 29.600	 99.129	  0.160
46873	 -0.155	 -0.240	  0.449	  0.106	  0.091	 -9.758	 -0.003	  0.002	  0.001	 29.600	 99.140	 -0.825
46923	 -0.153	 -0.237	  0.445	  0.119	  0.076	 -9.772	 -0.002	  0.001	  0.000	 29.600	 99.125	  0.519
46973	 -0.154	 -0.243	  0.448	  0.098	  0.092	 -9.740	 -0.003	  0.002	  0.001	 29.600	 99.136	 -0.467
47023	 -0.155	 -0.242	  0.446	  0.092	  0.094	 -9.766	 -0.003	  0.003	 -0.000	 29.600	 99.125	  0.519
47073	 -0.153	 -0.239	  0.447	  0.087	  0.088	 -9.750	 -0.003	  0.002	  0.000	 29.600	 99.136	 -0.467
47122	 -0.153	 -0.243	  0.442	  0.108	  0.089	 -9.805	 -0.003	  0.003	  0.001	 29.600	 99.125	  0.519
47172	 -0.153	 -0.240	  0.441	  0.134	  0.091	 -9.785	 -0.003	  0.002	  0.001	 29.600	 99.114	  1.505
47223	 -0.151	 -0.244	  0.445	  0.105	  0.097	 -9.772	 -0.003	  0.000	  0.001	 29.600	 99.140	 -0.825
47273	 -0.153	 -0.242	  0.446	  0.121	  0.097	 -9.751	 -0.003	  0.003	  0.001	 29.600	 99.136	 -0.467
47323	 -0.154	 -0.241	  0.445	  0.101	  0.078	 -9.769	 -0.002	  0.002	  0.001	 29.600	 99.140	 -0.825
47373	 -0.154	 -0.242	  0.446	  0.107	  0.082	 -9.773	 -0.003	  0.002	  0.003	 29.600	 99.114	  1.505
47423	 -0.154	 -0.245	  0.446	  0.108	  0.079	 -9.743	 -0.004	  0.002	  0.002	 29.600	 99.129	  0.160
47473	 -0.152	 -0.244	  0.442	  0.100	  0.084	 -9.788	 -0.002	  0.002	  0.001	 29.600	 99.136	 -0.467
47523	 -0.153	 -0.243	  0.445	  0.103	  0.092	 -9.800	 -0.004	  0.003	  0.001	 29.600	 99.125	  0.519
47573	 -0.154	 -0.236	  0.443	  0.115	  0.078	 -9.756	 -0.005	  0.002	  0.002	 29.600	 99.140	 -0.825
47623	 -0.153	 -0.245	  0.449	  0.090	  0.103	 -9.754	 -0.003	  0.002	  0.002	 29.600	 99.125	  0.519
47673	 -0.155	 -0.237	  0.449	  0.082	  0.099	 -9.754	 -0.003	  0.003	  0.002	 29.600	 99.125	  0.519
47723	 -0.154	 -0.242	  0.444	  0.093	  0.103	 -9.764	 -0.003	  0.002	  0.002	 29.600	 99.129	  0.160
47773	 -0.152	 -0.243	  0.445	  0.116	  0.112	 -9.747	 -0.004	  0.001	  0.002	 29.600	 99.125	  0.519
47823	 -0.154	 -0.243	  0.446	  0.115	  0.092	 -9.812	 -0.003	  0.002	  0.001	 29.600	 99.136	 -0.467
47873	 -0.154	 -0.243	  0.443	  0.130	  0.123	 -9.759	 -0.003	  0.002	  0.001	 29.600	 99.136	 -0.467
47923	 -0.151	 -0.241	  0.443	  0.098	  0.097	 -9.769	 -0.004	  0.004	  0.002	 29.600	 99.125	  0.519
47973	 -0.155	 -0.246	  0.447	  0.112	  0.097	 -9.748	 -0.004	  0.002	  0.000	 29.600	 99.140	 -0.825
48023	 -0.155	 -0.239	  0.447	  0.114	  0.088	 -9.757	 -0.004	  0.002	  0.001	 29.600	 99.140	 -0.825
48073	 -0.155	 -0.244	  0.447	  0.090	  0.105	 -9.742	 -0.002	  0.003	  0.002	 29.600	 99.129	  0.160
48123	 -0.153	 -0.245	  0.447	  0.118	  0.085	 -9.784	 -0.003	  0.002	  0.001	 29.600	 99.129	  0.160
48173	 -0.152	 -0.244	  0.446	  0.082	  0.101	 -9.780	 -0.004	  0.001	  0.001	 29.600	 99.140	 -0.825
48223	 -0.153	 -0.244	  0.446	  0.106	  0.103	 -9.785	 -0.003	  0.003	  0.001	 29.600	 99.125	  0.519
48273	 -0.153	 -0.244	  0.446	  0.094	  0.109	 -9.795	 -0.003	  0.003	  0.001	 29.600	 99.140	 -0.825
48323	 -0.153	 -0.241	  0.448	  0.117	  0.092	 -9.734	 -0.004	  0.003	  0.001	 29.600	 99.129	  0.160
48373	 -0.151	 -0.241	  0.445	  0.119	  0.081	 -9.766	 -0.002	  0.002	  0.001	 29.600	 99.140	 -0.825
48423	 -0.154	 -0.243	  0.448	  0.114	  0.095	 -9.802	 -0.003	  0.003	  0.001	 29.600	 99.129	  0.160
48473	 -0.153	 -0.243	  0.444	  0.112	  0.108	 -9.764	 -0.003	  0.003	  0.001	 29.600	 99.140	 -0.825
48523	 -0.153	 -0.243	  0.445	  0.100	  0.092	 -9.792	 -0.003	  0.002	  0.002	 29.600	 99.140	 -0.825
48573	 -0.154	 -0.243	  0.439	  0.094	  0.090	 -9.788	 -0.002	  0.002	  0.001	 29.600	 99.129	  0.160
48623	 -0.151	 -0.245	  0.444	  0.106	  0.116	 -9.764	 -0.002	  0.002	  0.000	 29.600	 99.140	 -0.825
48673	 -0.155	 -0.242	  0.446	  0.103	  0.095	 -9.797	 -0.003	  0.002	  0.001	 29.600	 99.140	 -0.825
48723	 -0.155	 -0.243	  0.449	  0.107	  0.102	 -9.787	 -0.004	  0.002	  0.001	 29.600	 99.129	  0.160
48773	 -0.154	 -0.243	  0.444	  0.122	  0.072	 -9.780	 -0.002	  0.001	  0.001	 29.600	 99.140	 -0.825
48823	 -0.152	 -0.237	  0.447	  0.133	  0.098	 -9.794	 -0.004	  0.002	  0.001	 29.600	 99.140	 -0.825
48873	 -0.154	 -0.237	  0.449	  0.119	  0.088	 -9.767	 -0.002	  0.002	  0.001	 29.600	 99.140	 -0.825
48923	 -0.152	 -0.246	  0.445	  0.111	  0.086	 -9.758	 -0.003	  0.002	  0.001	 29.600	 99.129	  0.160
48973	 -0.152	 -0.244	  0.446	  0.099	  0.100	 -9.789	 -0.003	  0.003	  0.001	 29.600	 99.129	  0.160
49023	 -0.154	 -0.242	  0.444	  0.131	  0.124	 -9.779	 -0.004	  0.003	  0.001	 29.600	 99.125	  0.519
49073	 -0.154	 -0.243	  0.446	  0.118	  0.098	 -9.779	 -0.003	  0.002	  0.001	 29.600	 99.129	  0.160
49123	 -0.152	 -0.240	  0.443	  0.120	  0.085	 -9.758	 -0.004	  0.002	  0.001	 29.600	 99.136	 -0.467
49173	 -0.152	 -0.241	  0.446	  0.121	  0.091	 -9.771	 -0.003	  0.002	  0.001	 29.600	 99.129	  0.160
49223	 -0.157	 -0.242	  0.445	  0.094	  0.104	 -9.787	 -0.003	  0.003	  0.002	 29.600	 99.129	  0.160
49273	 -0.156	 -0.244	  0.445	  0.076	  0.092	 -9.749	 -0.004	  0.003	 -0.000	 29.600	 99.129	  0.160
49323	 -0.156	 -0.241	  0.446	  0.114	  0.101	 -9.783	 -0.003	  0.002	 -0.000	 29.600	 99.129	  0.160
49373	 -0.154	 -0.245	  0.448	  0.093	  0.097	 -9.765	 -0.004	  0.003	  0.001	 29.600	 99.133	 -0.198
49423	 -0.155	 -0.243	  0.449	  0.095	  0.074	 -9.747	 -0.004	  0.003	  0.001	 29.600	 99.140	 -0.825
49473	 -0.154	 -0.242	  0.449	  0.100	  0.086	 -9.798	 -0.004	  0.002	  0.001	 29.600	 99.140	 -0.825
49523	 -0.153	 -0.243	  0.444	  0.113	  0.100	 -9.727	 -0.003	  0.002	  0.001	 29.600	 99.129	  0.160
49573	 -0.153	 -0.240	  0.447	  0.092	  0.105	 -9.802	 -0.003	  0.001	  0.001	 29.600	 99.140	 -0.825
49623	 -0.153	 -0.243	  0.444	  0.126	  0.093	 -9.766	 -0.003	  0.002	  0.001	 29.600	 99.140	 -0.825
49673	 -0.156	 -0.242	  0.447	  0.100	  0.101	 -9.800	 -0.003	  0.002	  0.002	 29.600	 99.133	 -0.198
49723	 -0.154	 -0.245	  0.448	  0.109	  0.075	 -9.777	 -0.003	  0.002	  0.001	 29.600	 99.129	  0.160
49774	 -0.153	 -0.241	  0.444	  0.091	  0.087	 -9.772	 -0.003	  0.002	  0.001	 29.600	 99.129	  0.160
49823	 -0.157	 -0.238	  0.446	  0.119	  0.097	 -9.751	 -0.003	  0.003	  0.001	 29.600	 99.140	 -0.825
49873	 -0.152	 -0.242	  0.446	  0.116	  0.090	 -9.759	 -0.003	  0.001	 -0.000	 29.600	 99.140	 -0.825
49923	 -0.153	 -0.242	  0.446	  0.093	  0.112	 -9.790	 -0.003	  0.003	  0.001	 29.600	 99.118	  1.146
49973	 -0.154	 -0.244	  0.448	  0.109	  0.096	 -9.778	 -0.003	  0.002	  0.001	 29.600	 99.129	  0.160
50023	 -0.155	 -0.245	  0.443	  0.100	  0.083	 -9.731	 -0.004	  0.002	  0.001	 29.600	 99.133	 -0.198
50073	 -0.154	 -0.241	  0.445	  0.080	  0.100	 -9.732	 -0.003	  0.001	  0.001	 29.600	 99.129	  0.160
50123	 -0.151	 -0.242	  0.447	  0.124	  0.084	 -9.779	 -0.002	  0.003	  0.001	 29.600	 99.133	 -0.198
50173	 -0.152	 -0.244	  0.446	  0.101	  0.090	 -9.778	 -0.004	  0.002	  0.002	 29.600	 99.133	 -0.198
50223	 -0.153	 -0.242	  0.443	  0.128	  0.093	 -9.747	 -0.004	  0.002	  0.001	 29.600	 99.133	 -0.198
50273	 -0.152	 -0.243	  0.447	  0.110	  0.064	 -9.763	 -0.003	  0.003	  0.002	 29.600	 99.129	  0.160
50323	 -0.153	 -0.236	  0.443	  0.102	  0.112	 -9.768	 -0.003	  0.001	  0.002	 29.600	 99.133	 -0.198
50373	 -0.152	 -0.240	  0.446	  0.110	  0.099	 -9.780	 -0.003	  0.002	  0.001	 29.600	 99.129	  0.160
50423	 -0.156	 -0.242	  0.446	  0.114	  0.087	 -9.770	 -0.003	  0.002	  0.001	 29.600	 99.129	  0.160
50473	 -0.155	 -0.243	  0.443	  0.110	  0.095	 -9.744	 -0.004	  0.002	  0.001	 29.600	 99.129	  0.160
50523	 -0.154	 -0.242	  0.446	  0.086	  0.104	 -9.742	 -0.003	  0.002	  0.000	 29.600	 99.133	 -0.198
50573	 -0.152	 -0.240	  0.447	  0.116	  0.092	 -9.760	 -0.003	  0.002	  0.000	 29.600	 99.133	 -0.198
50623	 -0.153	 -0.239	  0.447	  0.094	  0.102	 -9.788	 -0.003	  0.001	  0.001	 29.600	 99.133	 -0.198
50673	 -0.154	 -0.241	  0.447	  0.105	  0.105	 -9.766	 -0.002	  0.002	  0.000	 29.600	 99.129	  0.160
50723	 -0.152	 -0.243	  0.447	  0.121	  0.102	 -9.782	 -0.003	  0.002	  0.001	 29.600	 99.133	 -0.198
50773	 -0.155	 -0.244	  0.445	  0.108	  0.091	 -9.765	 -0.003	  0.002	  0.002	 29.600	 99.133	 -0.198
50823	 -0.152	 -0.246	  0.447	  0.097	  0.070	 -9.736	 -0.003	  0.002	  0.000	 29.600	 99.133	 -0.198
50873	 -0.152	 -0.237	  0.445	  0.109	  0.078	 -9.753	 -0.002	  0.002	  0.002	 29.600	 99.144	 -1.184
50923	 -0.154	 -0.244	  0.448	  0.100	  0.078	 -9.766	 -0.003	  0.002	  0.001	 29.600	 99.129	  0.160
50973	 -0.154	 -0.243	  0.447	  0.115	  0.098	 -9.799	 -0.003	  0.003	  0.002	 29.600	 99.133	 -0.198
51023	 -0.154	 -0.240	  0.446	  0.078	  0.101	 -9.804	 -0.003	  0.002	  0.002	 29.600	 99.133	 -0.198
51073	 -0.155	 -0.239	  0.440	  0.104	  0.089	 -9.783	 -0.003	  0.002	  0.002	 29.600	 99.144	 -1.184
51123	 -0.155	 -0.243	  0.444	  0.093	  0.082	 -9.757	 -0.003	  0.002	  0.000	 29.600	 99.122	  0.787
51173	 -0.153	 -0.236	  0.451	  0.125	  0.112	 -9.764	 -0.003	  0.001	  0.001	 29.600	 99.122	  0.787
51223	 -0.154	 -0.240	  0.446	  0.121	  0.077	 -9.766	 -0.004	  0.002	  0.001	 29.600	 99.129	  0.160
51273	 -0.152	 -0.241	  0.449	  0.117	  0.099	 -9.774	 -0.003	  0.002	  0.001	 29.600	 99.133	 -0.198
51323	 -0.153	 -0.242	  0.447	  0.100	  0.089	 -9.728	 -0.002	  0.001	  0.002	 29.600	 99.133	 -0.198
51373	 -0.153	 -0.244	  0.445	  0.099	  0.095	 -9.768	 -0.004	  0.003	  0.000	 29.600	 99.133	 -0.198
51423	 -0.155	 -0.244	  0.446	  0.112	  0.085	 -9.757	 -0.002	  0.003	  0.002	 29.600	 99.133	 -0.198
51473	 -0.153	 -0.245	  0.443	  0.109	  0.092	 -9.758	 -0.002	  0.002	  0.001	 29.600	 99.133	 -0.198
51523	 -0.156	 -0.243	  0.447	  0.094	  0.088	 -9.778	 -0.004	  0.002	  0.000	 29.600	 99.133	 -0.198
51573	 -0.152	 -0.244	  0.442	  0.094	  0.103	 -9.770	 -0.004	  0.002	  0.002	 29.600	 99.133	 -0.198
51623	 -0.151	 -0.242	  0.445	  0.093	  0.101	 -9.778	 -0.003	  0.001	  0.000	 29.600	 99.144	 -1.184
51673	 -0.153	 -0.237	  0.446	  0.092	  0.081	 -9.773	 -0.002	  0.002	  0.001	 29.600	 99.133	 -0.198
51723	 -0.154	 -0.240	  0.445	  0.111	  0.113	 -9.736	 -0.003	  0.002	  0.001	 29.600	 99.133	 -0.198
51773	 -0.154	 -0.242	  0.446	  0.122	  0.105	 -9.789	 -0.002	  0.002	  0.001	 29.600	 99.144	 -1.184
51823	 -0.151	 -0.243	  0.449	  0.110	  0.082	 -9.767	 -0.002	  0.002	 -0.000	 29.600	 99.133	 -0.198
51873	 -0.153	 -0.241	  0.446	  0.113	  0.107	 -9.745	 -0.003	  0.004	  0.001	 29.600	 99.133	 -0.198
51923	 -0.154	 -0.237	  0.448	  0.097	  0.078	 -9.748	 -0.002	  0.003	  0.001	 29.600	 99.133	 -0.198
51973	 -0.154	 -0.239	  0.447	  0.100	  0.088	 -9.761	 -0.003	  0.003	  0.001	 29.600	 99.133	 -0.198
52023	 -0.152	 -0.245	  0.445	  0.111	  0.082	 -9.746	 -0.003	  0.001	  0.000	 29.600	 99.133	 -0.198
52073	 -0.152	 -0.242	  0.446	  0.110	  0.073	 -9.765	 -0.002	  0.002	  0.001	 29.600	 99.122	  0.787
52123	 -0.155	 -0.248	  0.447	  0.142	  0.089	 -9.768	 -0.003	  0.002	  0.002	 29.600	 99.126	  0.429
52173	 -0.154	 -0.239	  0.446	  0.093	  0.100	 -9.769	 -0.001	  0.003	  0.001	 29.600	 99.133	 -0.198
52223	 -0.153	 -0.244	  0.443	  0.112	  0.086	 -9.757	 -0.004	  0.002	  0.000	 29.600	 99.133	 -0.198
52273	 -0.153	 -0.242	  0.444	  0.121	  0.125	 -9.779	 -0.003	  0.002	  0.001	 29.600	 99.137	 -0.557
52323	 -0.154	 -0.242	  0.445	  0.100	  0.105	 -9.780	 -0.004	  0.003	  0.002	 29.600	 99.122	  0.787
52373	 -0.154	 -0.241	  0.446	  0.127	  0.127	 -9.759	 -0.004	  0.002	  0.001	 29.600	 99.133	 -0.198
52423	 -0.155	 -0.245	  0.448	  0.091	  0.095	 -9.772	 -0.003	  0.003	  0.001	 29.600	 99.144	 -1.184
52474	 -0.154	 -0.242	  0.444	  0.112	  0.100	 -9.746	 -0.004	  0.002	  0.001	 29.600	 99.133	 -0.198
52523	 -0.155	 -0.237	  0.448	  0.107	  0.097	 -9.763	 -0.003	  0.002	 -0.000	 29.600	 99.133	 -0.198
52573	 -0.155	 -0.237	  0.449	  0.076	  0.108	 -9.759	 -0.002	  0.002	  0.001	 29.600	 99.137	 -0.557
52623	 -0.153	 -0.242	  0.447	  0.120	  0.106	 -9.772	 -0.003	  0.002	  0.002	 29.600	 99.137	 -0.557
52673	 -0.157	 -0.244	  0.445	  0.101	  0.094	 -9.778	 -0.003	  0.002	  0.001	 29.600	 99.133	 -0.198
52724	 -0.153	 -0.244	  0.444	  0.085	  0.116	 -9.758	 -0.003	  0.001	  0.002	 29.600	 99.137	 -0.557
52774	 -0.155	 -0.245	  0.449	  0.090	  0.083	 -9.770	 -0.002	  0.002	  0.002	 29.600	 99.133	 -0.198
52824	 -0.156	 -0.239	  0.445	  0.119	  0.079	 -9.794	 -0.003	  0.001	  0.001	 29.600	 99.137	 -0.557
52874	 -0.154	 -0.244	  0.450	  0.090	  0.078	 -9.753	 -0.002	  0.001	  0.001	 29.600	 99.149	 -1.632
52924	 -0.152	 -0.244	  0.444	  0.112	  0.086	 -9.789	 -0.003	  0.001	  0.001	 29.600	 99.133	 -0.198
52974	 -0.154	 -0.239	  0.446	  0.106	  0.073	 -9.778	 -0.002	  0.002	  0.002	 29.600	 99.122	  0.787
53024	 -0.154	 -0.241	  0.447	  0.091	  0.104	 -9.740	 -0.003	  0.002	  0.000	 29.600	 99.133	 -0.198
53074	 -0.153	 -0.244	  0.445	  0.114	  0.083	 -9.795	 -0.002	  0.002	  0.002	 29.600	 99.126	  0.429
53124	 -0.155	 -0.243	  0.444	  0.096	  0.102	 -9.762	 -0.003	  0.001	  0.001	 29.600	 99.137	 -0.557
53174	 -0.156	 -0.243	  0.446	  0.069	  0.100	 -9.778	 -0.003	  0.003	  0.000	 29.600	 99.149	 -1.632
53224	 -0.152	 -0.242	  0.450	  0.115	  0.129	 -9.796	 -0.003	  0.002	  0.000	 29.600	 99.149	 -1.632
53273	 -0.151	 -0.240	  0.450	  0.116	  0.102	 -9.745	 -0.003	  0.002	  0.001	 29.600	 99.137	 -0.557
53324	 -0.152	 -0.242	  0.447	  0.127	  0.069	 -9.792	 -0.003	  0.002	  0.001	 29.600	 99.133	 -0.198
53374	 -0.152	 -0.244	  0.449	  0.108	  0.071	 -9.793	 -0.003	  0.001	  0.000	 29.600	 99.133	 -0.198
53424	 -0.154	 -0.247	  0.445	  0.116	  0.087	 -9.763	 -0.004	  0.001	  0.001	 29.600	 99.149	 -1.632
53474	 -0.153	 -0.236	  0.450	  0.106	  0.081	 -9.769	 -0.002	  0.002	  0.002	 29.600	 99.137	 -0.557
53524	 -0.153	 -0.242	  0.447	  0.099	  0.094	 -9.737	 -0.003	  0.003	  0.000	 29.600	 99.137	 -0.557
53574	 -0.152	 -0.238	  0.446	  0.111	  0.082	 -9.750	 -0.003	  0.003	  0.001	 29.600	 99.133	 -0.198
53624	 -0.153	 -0.243	  0.447	  0.087	  0.126	 -9.752	 -0.003	  0.002	  0.001	 29.600	 99.137	 -0.557
53674	 -0.153	 -0.240	  0.446	  0.109	  0.084	 -9.750	 -0.004	  0.003	  0.001	 29.600	 99.149	 -1.632
53724	 -0.153	 -0.240	  0.446	  0.111	  0.076	 -9.736	 -0.003	  0.002	  0.001	 29.600	 99.144	 -1.184
53774	 -0.152	 -0.234	  0.447	  0.106	  0.092	 -9.757	 -0.003	  0.002	  0.000	 29.600	 99.133	 -0.198
53824	 -0.154	 -0.242	  0.444	  0.124	  0.110	 -9.794	 -0.002	  0.003	  0.001	 29.600	 99.137	 -0.557
53874	 -0.152	 -0.238	  0.447	  0.115	  0.092	 -9.731	 -0.003	  0.001	  0.001	 29.600	 99.137	 -0.557
53924	 -0.153	 -0.241	  0.450	  0.087	  0.075	 -9.752	 -0.003	  0.003	  0.002	 29.600	 99.137	 -0.557
53974	 -0.153	 -0.242	  0.446	  0.138	  0.106	 -9.746	 -0.003	  0.001	  0.001	 29.600	 99.137	 -0.557
54024	 -0.154	 -0.244	  0.445	  0.140	  0.100	 -9.777	 -0.004	  0.001	  0.001	 29.600	 99.126	  0.429
54074	 -0.153	 -0.244	  0.443	  0.095	  0.071	 -9.742	 -0.002	  0.002	  0.001	 29.600	 99.137	 -0.557
54124	 -0.155	 -0.243	  0.443	  0.098	  0.075	 -9.814	 -0.003	  0.002	  0.002	 29.600	 99.137	 -0.557
54174	 -0.153	 -0.245	  0.443	  0.105	  0.107	 -9.792	 -0.004	  0.001	  0.000	 29.600	 99.137	 -0.557
54224	 -0.152	 -0.241	  0.442	  0.119	  0.083	 -9.781	 -0.003	  0.001	  0.001	 29.600	 99.137	 -0.557
54274	 -0.155	 -0.241	  0.447	  0.113	  0.086	 -9.783	 -0.002	  0.002	  0.001	 29.600	 99.137	 -0.557
54324	 -0.153	 -0.239	  0.449	  0.096	  0.091	 -9.782	 -0.003	  0.002	  0.001	 29.600	 99.149	 -1.632
54374	 -0.153	 -0.245	  0.446	  0.121	  0.080	 -9.764	 -0.003	  0.002	  0.001	 29.600	 99.144	 -1.184
54424	 -0.153	 -0.243	  0.446	  0.121	  0.089	 -9.810	 -0.003	  0.002	  0.001	 29.600	 99.137	 -0.557
54474	 -0.153	 -0.245	  0.445	  0.121	  0.118	 -9.754	 -0.003	  0.002	  0.001	 29.600	 99.137	 -0.557
54524	 -0.153	 -0.243	  0.447	  0.104	  0.086	 -9.765	 -0.003	  0.001	  0.001	 29.600	 99.137	 -0.557
54574	 -0.153	 -0.244	  0.449	  0.111	  0.084	 -9.751	 -0.004	  0.002	  0.000	 29.600	 99.126	  0.429
54624	 -0.151	 -0.246	  0.446	  0.120	  0.093	 -9.795	 -0.003	  0.002	  0.002	 29.600	 99.126	  0.429
54674	 -0.152	 -0.244	  0.447	  0.090	  0.100	 -9.775	 -0.003	  0.004	  0.001	 29.600	 99.126	  0.429
54724	 -0.153	 -0.241	  0.449	  0.097	  0.081	 -9.780	 -0.003	  0.002	  0.002	 29.600	 99.126	  0.429
54774	 -0.152	 -0.241	  0.445	  0.114	  0.072	 -9.762	 -0.004	  0.001	  0.000	 29.600	 99.137	 -0.557
54824	 -0.155	 -0.244	  0.450	  0.107	  0.106	 -9.782	 -0.002	  0.001	  0.001	 29.600	 99.137	 -0.557
54874	 -0.153	 -0.243	  0.447	  0.090	  0.090	 -9.762	 -0.003	  0.002	  0.001	 29.600	 99.126	  0.429
54924	 -0.154	 -0.238	  0.447	  0.099	  0.097	 -9.778	 -0.002	  0.001	  0.001	 29.600	 99.137	 -0.557
54974	 -0.151	 -0.242	  0.445	  0.103	  0.073	 -9.729	 -0.003	  0.003	  0.002	 29.600	 99.126	  0.429
55024	 -0.150	 -0.246	  0.446	  0.117	  0.092	 -9.805	 -0.003	  0.003	  0.001	 29.600	 99.137	 -0.557
55074	 -0.151	 -0.242	  0.447	  0.111	  0.104	 -9.803	 -0.002	  0.002	  0.002	 29.600	 99.137	 -0.557
55124	 -0.152	 -0.244	  0.450	  0.088	  0.094	 -9.733	 -0.003	  0.001	  0.001	 29.600	 99.137	 -0.557
55174	 -0.153	 -0.243	  0.450	  0.104	  0.092	 -9.765	 -0.003	  0.003	  0.001	 29.600	 99.137	 -0.557
55224	 -0.154	 -0.242	  0.446	  0.133	  0.169	 -9.855	 -0.004	  0.001	  0.005	 29.600	 99.137	 -0.557
55274	 -0.151	 -0.246	  0.450	  0.030	  0.085	 -9.765	 -0.008	  0.003	  0.001	 29.600	 99.144	 -1.184
55324	 -0.153	 -0.235	  0.448	  0.096	  0.138	 -9.784	 -0.006	  0.005	  0.004	 29.600	 99.137	 -0.557
55374	 -0.154	 -0.246	  0.450	  0.122	  0.099	 -9.772	 -0.003	  0.003	 -0.001	 29.600	 99.126	  0.429
55424	 -0.152	 -0.242	  0.446	  0.115	  0.081	 -9.814	 -0.003	  0.003	  0.001	 29.600	 99.137	 -0.557
55474	 -0.153	 -0.242	  0.449	  0.189	  0.278	 -9.674	  0.001	 -0.003	  0.001	 29.600	 99.137	 -0.557
55524	 -0.155	 -0.241	  0.445	 -0.100	 -0.125	 -9.913	 -0.038	  0.028	  0.003	 29.600	 99.137	 -0.557
55574	 -0.152	 -0.241	  0.451	  0.158	  0.291	 -9.732	  0.001	 -0.001	  0.004	 29.600	 99.130	  0.071
55623	 -0.156	 -0.240	  0.446	  0.118	  0.111	 -9.774	 -0.003	  0.001	  0.001	 29.600	 99.137	 -0.557
55674	 -0.152	 -0.243	  0.449	  0.094	  0.101	 -9.782	 -0.008	  0.002	  0.001	 29.600	 99.137	 -0.557
55723	 -0.152	 -0.246	  0.449	  0.162	  0.070	 -9.786	 -0.013	 -0.003	  0.000	 29.600	 99.126	  0.429
55773	 -0.154	 -0.243	  0.450	  0.007	  0.071	 -9.793	 -0.010	 -0.022	  0.002	 29.600	 99.137	 -0.557
55823	 -0.152	 -0.244	  0.449	  0.116	  0.123	 -9.795	 -0.006	  0.001	 -0.001	 29.600	 99.137	 -0.557
55873	 -0.152	 -0.243	  0.450	  0.106	  0.105	 -9.772	 -0.005	 -0.001	  0.001	 29.600	 99.137	 -0.557
55923	 -0.153	 -0.248	  0.450	  0.093	  0.095	 -9.735	 -0.007	  0.000	  0.001	 29.600	 99.142	 -1.004
55973	 -0.151	 -0.237	  0.447	  0.097	  0.095	 -9.727	  0.003	  0.003	  0.002	 29.600	 99.142	 -1.004
56023	 -0.152	 -0.245	  0.450	  0.105	  0.092	 -9.786	  0.011	  0.008	  0.000	 29.600	 99.137	 -0.557
56074	 -0.153	 -0.242	  0.447	  0.286	  0.258	 -9.672	  0.014	  0.003	  0.002	 29.600	 99.137	 -0.557
56123	 -0.154	 -0.243	  0.444	  0.261	  0.231	 -9.702	 -0.022	  0.002	  0.002	 29.600	 99.137	 -0.557
56174	 -0.151	 -0.244	  0.449	 -0.164	 -0.182	 -9.886	 -0.032	 -0.020	 -0.001	 29.600	 99.126	  0.429
56223	 -0.151	 -0.244	  0.444	  0.027	  0.055	 -9.921	  0.016	 -0.006	 -0.000	 29.600	 99.126	  0.429
56273	 -0.151	 -0.243	  0.449	  0.080	  0.121	 -9.773	  0.006	  0.012	  0.000	 29.600	 99.137	 -0.557
56323	 -0.153	 -0.245	  0.449	  0.151	  0.165	 -9.735	  0.020	  0.031	  0.002	 29.600	 99.126	  0.429
56373	 -0.154	 -0.238	  0.451	 -0.244	 -0.133	 -9.919	  0.004	  0.010	  0.007	 29.600	 99.137	 -0.557
56423	 -0.154	 -0.244	  0.450	 -0.318	 -0.316	 -9.865	 -0.030	 -0.008	 -0.004	 29.600	 99.142	 -1.004
56473	 -0.155	 -0.240	  0.446	  0.048	  0.005	 -9.755	  0.001	 -0.006	  0.001	 29.600	 99.130	  0.071
56523	 -0.151	 -0.242	  0.445	  0.185	  0.091	 -9.702	  0.035	  0.050	 -0.003	 29.600	 99.130	  0.071
56573	 -0.157	 -0.243	  0.448	 -0.093	 -0.310	 -9.716	 -0.047	  0.007	  0.005	 29.600	 99.142	 -1.004
56623	 -0.154	 -0.243	  0.446	  0.060	  0.325	 -9.567	 -0.019	 -0.003	  0.010	 29.600	 99.126	  0.429
56673	 -0.153	 -0.244	  0.446	 -0.124	 -0.325	 -9.788	 -0.020	  0.022	 -0.006	 29.600	 99.126	  0.429
56723	 -0.154	 -0.240	  0.449	  0.188	  0.133	 -9.740	  0.016	  0.008	 -0.001	 29.600	 99.142	 -1.004
56773	 -0.153	 -0.245	  0.446	  0.232	  0.174	 -9.775	  0.006	 -0.002	 -0.000	 29.600	 99.142	 -1.004
56823	 -0.155	 -0.243	  0.450	 -0.112	 -0.041	 -9.838	 -0.010	  0.010	  0.002	 29.600	 99.130	  0.071
56873	 -0.156	 -0.243	  0.452	  0.184	  0.124	 -9.758	 -0.009	  0.003	  0.002	 29.600	 99.126	  0.429
56923	 -0.153	 -0.242	  0.447	 -0.027	 -0.037	 -9.833	 -0.013	  0.012	 -0.000	 29.600	 99.130	  0.071
56973	 -0.154	 -0.243	  0.447	  0.005	 -0.016	 -9.846	 -0.000	  0.002	  0.002	 29.600	 99.130	  0.071
57023	 -0.153	 -0.239	  0.450	  0.105	  0.080	 -9.790	  0.000	  0.005	  0.002	 29.600	 99.153	 -1.990
57073	 -0.156	 -0.246	  0.444	 -0.009	 -0.025	 -9.819	 -0.013	  0.004	  0.001	 29.600	 99.142	 -1.004
57123	 -0.152	 -0.246	  0.450	  0.153	  0.136	 -9.744	 -0.013	 -0.002	  0.001	 29.600	 99.142	 -1.004
57173	 -0.153	 -0.241	  0.447	 -0.011	  0.155	 -9.748	 -0.011	  0.002	  0.002	 29.600	 99.142	 -1.004
57223	 -0.153	 -0.244	  0.445	  0.147	  0.165	 -9.745	  0.021	 -0.004	 -0.000	 29.600	 99.142	 -1.004
57273	 -0.154	 -0.242	  0.444	  0.035	  0.045	 -9.803	  0.003	  0.010	 -0.001	 29.600	 99.142	 -1.004
57323	 -0.153	 -0.241	  0.449	  0.095	  0.064	 -9.791	 -0.006	  0.003	 -0.001	 29.600	 99.142	 -1.004
57373	 -0.154	 -0.242	  0.449	  0.041	  0.003	 -9.837	 -0.017	  0.012	  0.001	 29.600	 99.130	  0.071
57423	 -0.154	 -0.244	  0.450	  0.085	  0.016	 -9.877	 -0.006	  0.005	  0.002	 29.600	 99.130	  0.071
57473	 -0.153	 -0.244	  0.450	  0.149	  0.071	 -9.749	 -0.006	  0.001	  0.003	 29.600	 99.130	  0.071
57523	 -0.153	 -0.244	  0.447	  0.120	  0.065	 -9.758	 -0.006	  0.002	  0.000	 29.600	 99.142	 -1.004
57573	 -0.153	 -0.240	  0.447	  0.109	  0.072	 -9.782	 -0.005	  0.002	  0.001	 29.600	 99.142	 -1.004
57623	 -0.153	 -0.244	  0.442	  0.104	  0.103	 -9.776	 -0.003	  0.000	  0.001	 29.600	 99.130	  0.071
57673	 -0.154	 -0.242	  0.447	  0.083	  0.114	 -9.786	 -0.003	  0.003	  0.001	 29.600	 99.146	 -1.363
57723	 -0.155	 -0.245	  0.445	  0.118	  0.109	 -9.783	 -0.002	  0.003	  0.002	 29.600	 99.142	 -1.004
57773	 -0.154	 -0.240	  0.451	  0.117	  0.091	 -9.764	 -0.004	  0.002	  0.000	 29.600	 99.142	 -1.004
57824	 -0.152	 -0.247	  0.446	  0.115	  0.090	 -9.777	 -0.003	  0.003	  0.001	 29.600	 99.130	  0.071
57873	 -0.154	 -0.245	  0.451	  0.117	  0.093	 -9.749	 -0.003	  0.003	  0.001	 29.600	 99.142	 -1.004
57924	 -0.154	 -0.242	  0.445	  0.102	  0.088	 -9.784	 -0.004	  0.002	  0.001	 29.600	 99.130	  0.071
57973	 -0.155	 -0.240	  0.447	  0.097	  0.101	 -9.787	 -0.003	  0.003	  0.002	 29.600	 99.142	 -1.004
58024	 -0.154	 -0.242	  0.447	  0.130	  0.104	 -9.758	 -0.004	  0.002	  0.001	 29.600	 99.142	 -1.004
58074	 -0.154	 -0.238	  0.448	  0.117	  0.080	 -9.770	 -0.002	  0.003	  0.002	 29.600	 99.130	  0.071
58124	 -0.154	 -0.242	  0.446	  0.097	  0.085	 -9.790	 -0.005	  0.002	  0.000	 29.600	 99.130	  0.071
58174	 -0.154	 -0.245	  0.449	  0.095	  0.111	 -9.755	 -0.003	  0.003	  0.001	 29.600	 99.130	  0.071
58224	 -0.154	 -0.241	  0.446	  0.027	  0.012	 -9.800	 -0.000	  0.001	  0.002	 29.600	 99.142	 -1.004
58274	 -0.155	 -0.242	  0.447	  0.016	  0.109	 -9.783	 -0.005	  0.001	  0.002	 29.600	 99.142	 -1.004
58323	 -0.154	 -0.244	  0.446	  0.122	  0.111	 -9.772	 -0.004	  0.002	  0.001	 29.600	 99.134	 -0.288
58374	 -0.153	 -0.243	  0.443	  0.097	  0.117	 -9.753	 -0.002	  0.003	  0.001	 29.600	 99.134	 -0.288
58424	 -0.154	 -0.246	  0.445	  0.112	  0.092	 -9.791	 -0.004	  0.001	 -0.000	 29.600	 99.130	  0.071
58474	 -0.153	 -0.240	  0.443	  0.102	  0.085	 -9.769	 -0.003	  0.001	  0.001	 29.600	 99.142	 -1.004
58524	 -0.154	 -0.238	  0.449	  0.109	  0.055	 -9.782	 -0.003	  0.002	  0.001	 29.600	 99.130	  0.071
58574	 -0.152	 -0.241	  0.446	  0.106	  0.083	 -9.774	 -0.003	  0.002	  0.000	 29.600	 99.130	  0.071
58624	 -0.153	 -0.243	  0.446	  0.107	  0.103	 -9.818	 -0.003	  0.003	  0.001	 29.600	 99.130	  0.071
58674	 -0.155	 -0.242	  0.447	  0.123	  0.116	 -9.776	 -0.003	  0.002	  0.001	 29.600	 99.130	  0.071
58724	 -0.154	 -0.243	  0.446	  0.105	  0.092	 -9.770	 -0.003	  0.002	  0.001	 29.600	 99.142	 -1.004
58774	 -0.154	 -0.242	  0.445	  0.099	  0.082	 -9.745	 -0.003	  0.001	  0.003	 29.600	 99.146	 -1.363
58824	 -0.153	 -0.247	  0.449	  0.110	  0.092	 -9.782	 -0.003	  0.001	  0.001	 29.600	 99.134	 -0.288
58874	 -0.153	 -0.242	  0.446	  0.124	  0.091	 -9.749	 -0.003	  0.002	  0.001	 29.600	 99.130	  0.071
58924	 -0.155	 -0.240	  0.448	  0.104	  0.102	 -9.730	 -0.003	  0.003	  0.001	 29.600	 99.130	  0.071
58974	 -0.153	 -0.241	  0.446	  0.110	  0.091	 -9.780	 -0.003	  0.002	  0.001	 29.600	 99.134	 -0.288
59024	 -0.154	 -0.244	  0.446	  0.110	  0.078	 -9.762	 -0.003	  0.003	  0.002	 29.600	 99.130	  0.071
59074	 -0.153	 -0.243	  0.447	  0.108	  0.086	 -9.754	 -0.004	  0.002	  0.001	 29.600	 99.146	 -1.363
59124	 -0.156	 -0.241	  0.445	  0.117	  0.081	 -9.762	 -0.004	  0.002	  0.002	 29.600	 99.142	 -1.004
59174	 -0.156	 -0.242	  0.445	  0.126	  0.090	 -9.772	 -0.002	  0.002	  0.002	 29.600	 99.142	 -1.004
59224	 -0.154	 -0.237	  0.445	  0.107	  0.107	 -9.787	 -0.003	  0.001	  0.000	 29.600	 99.134	 -0.288
59274	 -0.153	 -0.243	  0.445	  0.106	  0.112	 -9.762	 -0.004	  0.002	  0.002	 29.600	 99.130	  0.071
59324	 -0.153	 -0.243	  0.446	  0.118	  0.099	 -9.754	 -0.005	  0.003	  0.000	 29.600	 99.146	 -1.363
59374	 -0.155	 -0.243	  0.447	  0.101	  0.081	 -9.768	 -0.004	  0.002	  0.002	 29.600	 99.134	 -0.288
59424	 -0.155	 -0.240	  0.446	  0.114	  0.076	 -9.785	 -0.003	  0.000	  0.001	 29.600	 99.134	 -0.288
59474	 -0.156	 -0.246	  0.446	  0.105	  0.090	 -9.784	 -0.003	  0.003	  0.001	 29.700	 99.134	 -0.288
59524	 -0.155	 -0.243	  0.444	  0.110	  0.099	 -9.794	 -0.004	  0.002	  0.001	 29.600	 99.142	 -1.004
59574	 -0.154	 -0.240	  0.450	  0.119	  0.094	 -9.771	 -0.004	  0.001	  0.002	 29.600	 99.146	 -1.363
59624	 -0.157	 -0.242	  0.446	  0.119	  0.105	 -9.783	 -0.004	  0.003	  0.001	 29.600	 99.134	 -0.288
59674	 -0.153	 -0.244	  0.447	  0.092	  0.095	 -9.786	 -0.004	  0.001	  0.001	 29.600	 99.146	 -1.363
59723	 -0.154	 -0.242	  0.451	  0.092	  0.088	 -9.787	 -0.004	  0.002	  0.001	 29.600	 99.134	 -0.288
59773	 -0.155	 -0.241	  0.446	  0.137	  0.097	 -9.752	 -0.003	  0.003	  0.001	 29.600	 99.134	 -0.288
59823	 -0.156	 -0.246	  0.449	  0.104	  0.085	 -9.774	 -0.004	  0.003	 -0.000	 29.600	 99.134	 -0.288
59873	 -0.154	 -0.244	  0.443	  0.148	  0.050	 -9.674	  0.003	 -0.007	  0.002	 29.600	 99.146	 -1.363
59923	 -0.154	 -0.244	  0.446	 -0.070	  0.130	 -9.718	 -0.020	  0.024	  0.003	 29.600	 99.134	 -0.288
59973	 -0.154	 -0.236	  0.447	  0.125	  0.064	 -9.736	 -0.005	  0.006	 -0.001	 29.600	 99.134	 -0.288
60023	 -0.154	 -0.245	  0.446	  0.143	  0.114	 -9.778	 -0.002	 -0.000	  0.002	 29.600	 99.134	 -0.288
60074	 -0.155	 -0.242	  0.447	  0.106	  0.098	 -9.767	 -0.004	  0.004	 -0.000	 29.600	 99.134	 -0.288
60123	 -0.152	 -0.244	  0.447	  0.126	  0.103	 -9.771	 -0.003	  0.003	  0.001	 29.600	 99.123	  0.698
60173	 -0.155	 -0.242	  0.449	  0.085	  0.077	 -9.786	 -0.002	  0.002	  0.002	 29.600	 99.134	 -0.288
60223	 -0.152	 -0.242	  0.447	  0.086	  0.084	 -9.754	 -0.003	  0.002	  0.001	 29.600	 99.134	 -0.288
60273	 -0.155	 -0.243	  0.449	  0.089	  0.114	 -9.821	 -0.004	  0.002	  0.001	 29.600	 99.119	  1.056
60323	 -0.153	 -0.243	  0.444	  0.109	  0.090	 -9.756	 -0.003	  0.001	  0.000	 29.600	 99.142	 -1.004
60373	 -0.154	 -0.244	  0.449	  0.108	  0.080	 -9.772	 -0.003	  0.003	  0.000	 29.600	 99.134	 -0.288
60423	 -0.153	 -0.243	  0.446	  0.108	  0.091	 -9.762	 -0.004	  0.002	  0.002	 29.600	 99.134	 -0.288
60473	 -0.153	 -0.246	  0.451	  0.109	  0.095	 -9.758	 -0.003	  0.002	 -0.000	 29.600	 99.146	 -1.363
60523	 -0.152	 -0.242	  0.443	  0.127	  0.095	 -9.781	 -0.003	  0.003	  0.001	 29.600	 99.134	 -0.288
60573	 -0.154	 -0.241	  0.444	  0.108	  0.071	 -9.783	 -0.003	  0.003	  0.001	 29.600	 99.134	 -0.288
60623	 -0.154	 -0.241	  0.447	  0.103	  0.106	 -9.760	 -0.003	  0.004	  0.001	 29.600	 99.134	 -0.288
60673	 -0.155	 -0.246	  0.445	  0.094	  0.102	 -9.783	 -0.003	  0.002	  0.001	 29.600	 99.134	 -0.288
60723	 -0.154	 -0.239	  0.451	  0.108	  0.100	 -9.766	 -0.002	  0.001	  0.000	 29.600	 99.134	 -0.288
60773	 -0.156	 -0.242	  0.446	  0.111	  0.120	 -9.816	 -0.002	  0.002	  0.002	 29.600	 99.146	 -1.363
60823	 -0.153	 -0.243	  0.447	  0.091	  0.098	 -9.782	 -0.004	  0.002	  0.001	 29.700	 99.123	  0.698
60873	 -0.155	 -0.243	  0.446	  0.127	  0.087	 -9.763	 -0.003	  0.002	  0.001	 29.700	 99.146	 -1.363
60923	 -0.153	 -0.242	  0.450	  0.109	  0.100	 -9.758	 -0.004	  0.001	  0.002	 29.600	 99.130	  0.071
60973	 -0.153	 -0.241	  0.447	  0.097	  0.094	 -9.758	 -0.003	  0.002	  0.001	 29.600	 99.146	 -1.363
61023	 -0.156	 -0.238	  0.448	  0.123	  0.084	 -9.767	 -0.003	  0.002	  0.001	 29.600	 99.134	 -0.288
61073	 -0.154	 -0.239	  0.443	  0.117	  0.082	 -9.757	 -0.003	  0.002	  0.000	 29.600	 99.146	 -1.363
61123	 -0.155	 -0.246	  0.449	  0.119	  0.098	 -9.780	 -0.003	  0.002	  0.002	 29.600	 99.134	 -0.288
61173	 -0.155	 -0.245	  0.443	  0.113	  0.098	 -9.776	 -0.003	  0.002	  0.001	 29.600	 99.146	 -1.363
61223	 -0.153	 -0.238	  0.447	  0.111	  0.120	 -9.789	 -0.003	  0.002	  0.001	 29.600	 99.134	 -0.288
61273	 -0.154	 -0.239	  0.445	  0.093	  0.087	 -9.753	 -0.004	  0.002	  0.001	 29.600	 99.134	 -0.288
61323	 -0.153	 -0.241	  0.447	  0.104	  0.078	 -9.764	 -0.004	  0.001	  0.001	 29.600	 99.123	  0.698
61373	 -0.153	 -0.240	  0.447	  0.125	  0.090	 -9.765	 -0.003	  0.003	  0.001	 29.600	 99.123	  0.698
61423	 -0.155	 -0.245	  0.449	  0.095	  0.080	 -9.758	 -0.002	  0.002	  0.002	 29.700	 99.139	 -0.736
61474	 -0.155	 -0.238	  0.446	  0.108	  0.068	 -9.797	 -0.003	  0.002	  0.003	 29.700	 99.134	 -0.288
61523	 -0.153	 -0.244	  0.447	  0.110	  0.088	 -9.769	 -0.003	  0.002	  0.001	 29.600	 99.146	 -1.363
61573	 -0.153	 -0.242	  0.447	  0.091	  0.110	 -9.759	 -0.004	  0.002	  0.001	 29.600	 99.134	 -0.288
61623	 -0.154	 -0.239	  0.449	  0.087	  0.094	 -9.759	 -0.003	  0.002	  0.001	 29.700	 99.139	 -0.736
61673	 -0.154	 -0.242	  0.451	  0.119	  0.093	 -9.774	 -0.004	  0.003	  0.001	 29.700	 99.134	 -0.288
61723	 -0.152	 -0.243	  0.446	  0.118	  0.083	 -9.758	 -0.003	  0.003	  0.002	 29.600	 99.134	 -0.288
61773	 -0.154	 -0.238	  0.447	  0.098	  0.101	 -9.791	 -0.003	  0.002	  0.000	 29.600	 99.134	 -0.288
61823	 -0.154	 -0.244	  0.444	  0.099	  0.100	 -9.779	 -0.003	  0.003	  0.001	 29.700	 99.134	 -0.288
61873	 -0.155	 -0.241	  0.445	  0.107	  0.105	 -9.755	 -0.003	  0.003	  0.001	 29.700	 99.150	 -1.722
61923	 -0.152	 -0.245	  0.449	  0.109	  0.097	 -9.792	 -0.004	  0.003	  0.001	 29.700	 99.127	  0.340
61973	 -0.154	 -0.245	  0.446	  0.124	  0.083	 -9.781	 -0.004	  0.002	 -0.000	 29.700	 99.127	  0.340
62023	 -0.154	 -0.243	  0.449	  0.106	  0.074	 -9.783	 -0.003	  0.002	  0.001	 29.600	 99.134	 -0.288
62073	 -0.155	 -0.246	  0.449	  0.112	  0.085	 -9.724	 -0.003	  0.002	  0.001	 29.700	 99.134	 -0.288
62123	 -0.154	 -0.243	  0.442	  0.114	  0.107	 -9.781	 -0.003	  0.003	  0.002	 29.600	 99.134	 -0.288
62173	 -0.153	 -0.244	  0.446	  0.108	  0.102	 -9.712	 -0.002	  0.003	  0.001	 29.700	 99.139	 -0.736
62223	 -0.153	 -0.245	  0.446	  0.113	  0.091	 -9.783	 -0.004	  0.002	  0.002	 29.700	 99.139	 -0.736
62273	 -0.152	 -0.239	  0.445	  0.126	  0.091	 -9.784	 -0.003	  0.001	  0.002	 29.700	 99.139	 -0.736
62323	 -0.151	 -0.246	  0.444	  0.117	  0.085	 -9.784	 -0.004	  0.001	 -0.000	 29.600	 99.146	 -1.363
62373	 -0.156	 -0.240	  0.444	  0.107	  0.095	 -9.774	 -0.002	  0.003	  0.002	 29.700	 99.127	  0.340
62423	 -0.155	 -0.243	  0.447	  0.122	  0.120	 -9.764	 -0.003	  0.002	  0.002	 29.700	 99.134	 -0.288
62473	 -0.152	 -0.243	  0.445	  0.112	  0.078	 -9.755	 -0.002	  0.002	  0.001	 29.700	 99.139	 -0.736
62523	 -0.155	 -0.243	  0.442	  0.118	  0.100	 -9.791	 -0.004	  0.002	  0.001	 29.700	 99.127	  0.340
62573	 -0.153	 -0.241	  0.445	  0.114	  0.118	 -9.765	 -0.002	  0.002	  0.002	 29.700	 99.123	  0.698
62623	 -0.155	 -0.246	  0.447	  0.090	  0.093	 -9.756	 -0.002	  0.002	  0.001	 29.700	 99.139	 -0.736
62673	 -0.153	 -0.242	  0.443	  0.107	  0.097	 -9.747	 -0.003	  0.002	  0.001	 29.700	 99.127	  0.340
62723	 -0.154	 -0.243	  0.447	  0.111	  0.093	 -9.748	 -0.002	  0.001	  0.002	 29.700	 99.139	 -0.736
62773	 -0.152	 -0.242	  0.446	  0.114	  0.069	 -9.799	 -0.002	  0.002	  0.001	 29.700	 99.139	 -0.736
62823	 -0.154	 -0.242	  0.443	  0.145	  0.090	 -9.765	 -0.004	  0.003	  0.002	 29.700	 99.139	 -0.736
62873	 -0.154	 -0.250	  0.443	  0.108	  0.083	 -9.784	 -0.004	  0.002	  0.001	 29.700	 99.134	 -0.288
62924	 -0.155	 -0.243	  0.444	  0.109	  0.054	 -9.772	 -0.003	  0.003	  0.002	 29.700	 99.123	  0.698
62973	 -0.157	 -0.243	  0.445	  0.102	  0.101	 -9.776	 -0.004	  0.002	  0.001	 29.700	 99.139	 -0.736
63023	 -0.154	 -0.242	  0.444	  0.113	  0.107	 -9.805	 -0.004	  0.002	  0.001	 29.700	 99.134	 -0.288
63073	 -0.154	 -0.237	  0.449	  0.123	  0.110	 -9.770	 -0.003	  0.003	  0.002	 29.700	 99.127	  0.340
63123	 -0.153	 -0.239	  0.443	  0.105	  0.088	 -9.799	 -0.003	  0.002	  0.002	 29.700	 99.139	 -0.736
63173	 -0.154	 -0.245	  0.446	  0.109	  0.082	 -9.787	 -0.003	  0.002	  0.001	 29.700	 99.134	 -0.288
63223	 -0.155	 -0.237	  0.445	  0.131	  0.100	 -9.771	 -0.003	  0.001	  0.002	 29.700	 99.139	 -0.736
63273	 -0.156	 -0.242	  0.442	  0.094	  0.091	 -9.800	 -0.002	  0.002	  0.002	 29.700	 99.134	 -0.288
63323	 -0.153	 -0.243	  0.446	  0.130	  0.093	 -9.790	 -0.004	  0.001	  0.001	 29.700	 99.139	 -0.736
63373	 -0.154	 -0.245	  0.443	  0.085	  0.084	 -9.757	 -0.004	  0.001	  0.002	 29.700	 99.143	 -1.094
63424	 -0.154	 -0.245	  0.449	  0.100	  0.082	 -9.773	 -0.003	  0.002	  0.001	 29.600	 99.134	 -0.288
63474	 -0.153	 -0.239	  0.447	  0.113	  0.109	 -9.792	 -0.003	  0.003	  0.002	 29.700	 99.127	  0.340
63524	 -0.153	 -0.241	  0.447	  0.124	  0.104	 -9.759	 -0.003	  0.001	  0.001	 29.700	 99.139	 -0.736
63574	 -0.154	 -0.242	  0.447	  0.110	  0.089	 -9.795	 -0.003	  0.002	  0.001	 29.700	 99.139	 -0.736
63624	 -0.152	 -0.238	  0.446	  0.093	  0.087	 -9.778	 -0.003	  0.004	  0.001	 29.700	 99.150	 -1.722
63674	 -0.153	 -0.243	  0.443	  0.114	  0.066	 -9.759	 -0.003	  0.003	  0.001	 29.700	 99.127	  0.340
63724	 -0.154	 -0.243	  0.446	  0.117	  0.085	 -9.785	 -0.003	  0.002	  0.001	 29.700	 99.127	  0.340
63774	 -0.153	 -0.242	  0.447	  0.089	  0.117	 -9.764	 -0.004	  0.002	  0.001	 29.700	 99.139	 -0.736
63824	 -0.153	 -0.242	  0.447	  0.127	  0.081	 -9.768	 -0.004	  0.003	  0.001	 29.700	 99.123	  0.698
63874	 -0.153	 -0.239	  0.444	  0.098	  0.106	 -9.778	 -0.004	  0.002	  0.001	 29.700	 99.139	 -0.736
63924	 -0.153	 -0.243	  0.446	  0.122	  0.096	 -9.800	 -0.004	  0.002	  0.001	 29.700	 99.150	 -1.722
63974	 -0.155	 -0.243	  0.443	  0.097	  0.071	 -9.809	 -0.002	  0.001	  0.001	 29.700	 99.139	 -0.736
64024	 -0.151	 -0.243	  0.449	  0.113	  0.075	 -9.804	 -0.002	  0.002	  0.001	 29.700	 99.127	  0.340
64074	 -0.152	 -0.241	  0.447	  0.108	  0.098	 -9.779	 -0.002	  0.002	  0.002	 29.700	 99.139	 -0.736
64124	 -0.155	 -0.240	  0.447	  0.123	  0.079	 -9.804	 -0.002	  0.003	  0.001	 29.700	 99.139	 -0.736
64174	 -0.154	 -0.244	  0.445	  0.105	  0.074	 -9.755	 -0.003	  0.001	  0.002	 29.700	 99.127	  0.340
64224	 -0.155	 -0.242	  0.446	  0.091	  0.102	 -9.778	 -0.003	  0.002	  0.003	 29.700	 99.116	  1.326
64274	 -0.152	 -0.243	  0.446	  0.114	  0.084	 -9.780	 -0.003	  0.001	  0.002	 29.700	 99.139	 -0.736
64324	 -0.157	 -0.241	  0.445	  0.115	  0.074	 -9.797	 -0.004	  0.003	  0.002	 29.700	 99.139	 -0.736
64374	 -0.153	 -0.242	  0.445	  0.111	  0.086	 -9.775	 -0.003	  0.002	  0.001	 29.700	 99.139	 -0.736
64424	 -0.152	 -0.242	  0.446	  0.121	  0.072	 -9.801	 -0.003	  0.002	  0.000	 29.700	 99.143	 -1.094
64474	 -0.154	 -0.238	  0.450	  0.126	  0.084	 -9.762	 -0.002	  0.002	  0.001	 29.700	 99.139	 -0.736
64524	 -0.155	 -0.240	  0.447	  0.126	  0.081	 -9.770	 -0.002	  0.002	  0.002	 29.700	 99.139	 -0.736
64574	 -0.152	 -0.241	  0.449	  0.094	  0.103	 -9.788	 -0.004	  0.002	  0.001	 29.700	 99.143	 -1.094
64624	 -0.155	 -0.241	  0.445	  0.094	  0.078	 -9.793	 -0.004	  0.002	  0.001	 29.700	 99.139	 -0.736
64674	 -0.155	 -0.244	  0.449	  0.112	  0.043	 -9.783	 -0.004	  0.004	 -0.002	 29.700	 99.127	  0.340
64724	 -0.150	 -0.241	  0.449	  0.113	  0.108	 -9.794	 -0.003	  0.001	  0.001	 29.700	 99.127	  0.340
64774	 -0.152	 -0.238	  0.447	  0.131	  0.106	 -9.756	 -0.003	  0.002	  0.002	 29.700	 99.143	 -1.094
64824	 -0.155	 -0.247	  0.449	  0.099	  0.102	 -9.794	 -0.004	  0.002	  0.002	 29.700	 99.143	 -1.094
64874	 -0.152	 -0.243	  0.447	  0.111	  0.105	 -9.780	 -0.003	  0.001	  0.001	 29.700	 99.139	 -0.736
64924	 -0.152	 -0.244	  0.449	  0.118	  0.096	 -9.737	 -0.003	  0.002	  0.001	 29.700	 99.127	  0.340
64974	 -0.154	 -0.245	  0.447	  0.117	  0.100	 -9.781	 -0.003	  0.002	  0.001	 29.700	 99.139	 -0.736
65024	 -0.154	 -0.244	  0.442	  0.113	  0.084	 -9.770	 -0.003	  0.003	  0.001	 29.700	 99.154	 -2.080
65074	 -0.153	 -0.242	  0.443	  0.110	  0.085	 -9.762	 -0.002	  0.003	  0.001	 29.700	 99.143	 -1.094
65124	 -0.155	 -0.246	  0.447	  0.128	  0.105	 -9.764	 -0.004	  0.003	  0.001	 29.700	 99.143	 -1.094
65174	 -0.152	 -0.240	  0.447	  0.149	  0.162	 -9.759	 -0.004	  0.004	  0.000	 29.700	 99.139	 -0.736
65224	 -0.153	 -0.241	  0.449	  0.111	  0.105	 -9.778	 -0.003	  0.003	  0.001	 29.700	 99.139	 -0.736
65274	 -0.153	 -0.244	  0.447	  0.106	  0.067	 -9.780	 -0.003	  0.003	  0.001	 29.700	 99.139	 -0.736
65324	 -0.155	 -0.239	  0.450	  0.070	  0.135	 -9.762	 -0.001	  0.002	 -0.000	 29.700	 99.127	  0.340
65374	 -0.154	 -0.243	  0.447	  0.029	  0.041	 -9.798	 -0.004	  0.003	  0.001	 29.700	 99.132	 -0.109
65424	 -0.152	 -0.241	  0.446	  0.212	  0.075	 -9.742	 -0.002	  0.002	  0.000	 29.700	 99.132	 -0.109
65474	 -0.155	 -0.239	  0.447	  0.193	  0.075	 -9.704	 -0.002	 -0.000	  0.001	 29.700	 99.132	 -0.109
65524	 -0.154	 -0.237	  0.447	  0.121	  0.052	 -9.881	 -0.002	  0.001	 -0.001	 29.700	 99.132	 -0.109
65574	 -0.154	 -0.243	  0.446	  0.083	  0.076	 -9.815	 -0.004	  0.004	  0.002	 29.700	 99.143	 -1.094
65624	 -0.154	 -0.242	  0.449	  0.098	  0.106	 -9.812	 -0.006	  0.003	  0.000	 29.700	 99.154	 -2.080
65674	 -0.155	 -0.245	  0.446	  0.120	  0.120	 -9.766	  0.000	  0.001	  0.001	 29.700	 99.127	  0.340
65724	 -0.155	 -0.242	  0.445	  0.067	  0.075	 -9.766	 -0.001	 -0.000	  0.001	 29.700	 99.132	 -0.109
65774	 -0.154	 -0.239	  0.450	 -0.005	 -0.016	 -9.819	 -0.006	  0.003	  0.002	 29.700	 99.143	 -1.094
65824	 -0.156	 -0.239	  0.447	  0.286	  0.156	 -9.785	 -0.009	  0.010	  0.001	 29.700	 99.143	 -1.094
65874	 -0.152	 -0.245	  0.446	  0.165	  0.104	 -9.729	 -0.001	  0.002	 -0.000	 29.700	 99.139	 -0.736
65924	 -0.153	 -0.242	  0.449	  0.327	  0.163	 -9.560	  0.002	 -0.007	 -0.000	 29.700	 99.127	  0.340
65974	 -0.155	 -0.242	  0.447	  0.088	  0.103	 -9.773	 -0.004	  0.001	  0.000	 29.700	 99.139	 -0.736
66024	 -0.154	 -0.245	  0.445	  0.017	 -0.004	 -9.794	 -0.005	  0.008	 -0.001	 29.700	 99.143	 -1.094
66074	 -0.153	 -0.241	  0.447	  0.212	 -0.596	 -9.936	 -0.012	  0.011	 -0.005	 29.700	 99.127	  0.340
66124	 -0.155	 -0.242	  0.449	 -0.675	  0.035	 -9.779	 -0.009	  0.000	  0.137	 29.700	 99.132	 -0.109
66174	 -0.157	 -0.240	  0.449	  0.562	 -0.682	 -10.808	 -0.096	 -0.104	  0.228	 29.700	 99.143	 -1.094
66224	 -0.154	 -0.244	  0.443	  0.158	  0.560	 -10.120	 -0.288	  0.031	 -0.209	 29.700	 99.143	 -1.094
66274	 -0.146	 -0.253	  0.441	  0.574	  1.325	 -9.625	 -0.200	 -0.267	 -0.268	 29.700	 99.143	 -1.094
66324	 -0.130	 -0.253	  0.440	  0.133	  1.110	 -11.926	  0.269	 -0.244	 -0.177	 29.700	 99.143	 -1.094
66374	 -0.117	 -0.245	  0.430	 -0.885	 -1.004	 -16.762	  0.028	 -0.175	 -0.072	 29.700	 99.132	 -0.109
66424	 -0.102	 -0.239	  0.410	 -3.986	 -1.899	 -1.780	 -0.434	  0.748	  0.202	 29.700	 99.127	  0.340
66474	 -0.127	 -0.255	  0.389	  6.152	  8.073	 -1.653	 -0.592	  0.445	  0.395	 29.700	 99.132	 -0.109
66524	 -0.125	 -0.235	  0.409	  0.610	  0.486	 -19.369	  1.164	 -1.420	 -0.323	 29.700	 99.143	 -1.094
66574	 -0.107	 -0.216	  0.418	 -2.325	 -6.463	 -8.027	  0.195	  0.363	 -0.820	 29.700	 99.132	 -0.109
66624	 -0.110	 -0.222	  0.405	 -0.436	  2.548	 -9.111	 -0.584	  0.700	  0.239	 29.700	 99.132	 -0.109
66674	 -0.128	 -0.235	  0.399	  1.440	  0.577	 -7.660	 -0.112	  0.098	  0.727	 29.700	 99.143	 -1.094
66724	 -0.139	 -0.228	  0.400	  0.477	 -0.254	 -9.509	  0.071	 -0.127	  0.524	 29.700	 99.132	 -0.109
66774	 -0.142	 -0.223	  0.404	 -0.249	  0.194	 -10.622	  0.061	 -0.061	  0.303	 29.700	 99.143	 -1.094
66824	 -0.146	 -0.220	  0.407	  0.035	 -0.193	 -9.701	 -0.018	 -0.036	  0.234	 29.700	 99.132	 -0.109
66874	 -0.145	 -0.224	  0.405	  0.053	  0.423	 -9.973	 -0.041	  0.005	 -0.075	 29.700	 99.132	 -0.109
66924	 -0.146	 -0.226	  0.413	  0.295	  0.252	 -10.029	  0.072	  0.026	 -0.178	 29.700	 99.132	 -0.109
66974	 -0.143	 -0.224	  0.413	  0.022	 -0.006	 -9.887	  0.144	  0.018	 -0.206	 29.700	 99.143	 -1.094
67024	 -0.143	 -0.222	  0.417	 -0.284	 -0.154	 -9.952	  0.144	  0.136	 -0.204	 29.700	 99.143	 -1.094
67074	 -0.146	 -0.222	  0.415	 -0.026	 -0.038	 -9.752	  0.112	  0.262	 -0.106	 29.700	 99.143	 -1.094
67124	 -0.151	 -0.219	  0.420	  0.639	  0.292	 -9.652	  0.215	  0.162	  0.132	 29.700	 99.143	 -1.094
67174	 -0.156	 -0.209	  0.424	  1.201	 -0.181	 -9.346	  0.218	 -0.068	  0.163	 29.700	 99.132	 -0.109
67224	 -0.153	 -0.204	  0.430	  0.548	 -0.420	 -9.896	  0.152	 -0.216	  0.198	 29.700	 99.143	 -1.094
67274	 -0.153	 -0.203	  0.429	  0.478	 -0.668	 -10.073	 -0.067	 -0.193	  0.077	 29.700	 99.132	 -0.109
67323	 -0.151	 -0.208	  0.435	  0.015	 -0.221	 -10.350	 -0.085	 -0.142	  0.088	 29.700	 99.132	 -0.109
67374	 -0.148	 -0.205	  0.427	 -0.149	 -0.572	 -9.878	 -0.168	 -0.018	  0.152	 29.700	 99.132	 -0.109
67423	 -0.150	 -0.207	  0.427	 -0.734	  0.345	 -8.554	 -0.219	  0.226	  0.092	 29.700	 99.136	 -0.467
67473	 -0.162	 -0.204	  0.425	  1.190	 -0.257	 -8.019	 -0.015	  0.558	  0.016	 29.700	 99.127	  0.340
67523	 -0.166	 -0.207	  0.427	  3.468	 -0.196	 -20.356	 -0.202	 -0.482	 -0.052	 29.700	 99.143	 -1.094
67573	 -0.141	 -0.213	  0.404	 -3.280	 -1.568	 -13.047	 -0.694	 -0.113	 -0.013	 29.700	 99.136	 -0.467
67623	 -0.145	 -0.242	  0.367	 -3.160	  5.491	 10.661	 -1.004	  1.961	 -0.332	 29.700	 99.143	 -1.094
67674	 -0.170	 -0.238	  0.367	  2.118	  4.141	 -9.556	  1.235	 -1.472	  0.224	 29.700	 99.132	 -0.109
67723	 -0.136	 -0.212	  0.400	 -2.595	 -5.820	 -10.686	  0.624	 -0.971	 -0.647	 29.700	 99.132	 -0.109
67773	 -0.137	 -0.221	  0.393	  3.384	  1.193	 -5.018	 -0.064	  1.481	 -0.760	 29.700	 99.136	 -0.467
67824	 -0.125	 -0.218	  0.408	  0.190	 -0.417	 -14.184	  1.120	 -1.689	 -0.038	 29.700	 99.132	 -0.109
67873	 -0.112	 -0.207	  0.419	 -6.539	  1.900	 -6.502	 -0.117	  0.978	  0.203	 29.700	 99.136	 -0.467
67923	 -0.128	 -0.212	  0.412	  2.228	 -0.770	 -10.618	 -0.225	 -0.416	  0.368	 29.700	 99.132	 -0.109
67973	 -0.127	 -0.218	  0.420	 -1.458	 -0.282	 -8.800	 -0.167	  0.059	  0.270	 29.700	 99.136	 -0.467
68023	 -0.135	 -0.224	  0.414	  1.540	  0.016	 -9.621	 -0.341	  0.110	 -0.090	 29.700	 99.120	  0.967
68073	 -0.137	 -0.223	  0.423	 -0.018	  1.120	 -9.868	 -0.097	 -0.073	  0.052	 29.700	 99.143	 -1.094
68123	 -0.135	 -0.225	  0.428	  0.880	  0.080	 -9.038	  0.047	 -0.134	 -0.084	 29.700	 99.132	 -0.109
68173	 -0.135	 -0.235	  0.437	 -0.029	  0.414	 -10.085	  0.130	 -0.210	 -0.097	 29.700	 99.136	 -0.467
68223	 -0.134	 -0.231	  0.446	 -0.217	 -0.419	 -10.602	  0.142	 -0.053	  0.298	 29.700	 99.136	 -0.467
68273	 -0.139	 -0.228	  0.453	  0.548	 -0.457	 -10.404	 -0.015	  0.030	  0.039	 29.700	 99.136	 -0.467
68323	 -0.140	 -0.230	  0.453	  0.262	  0.094	 -9.663	 -0.089	 -0.115	  0.026	 29.700	 99.132	 -0.109
68373	 -0.138	 -0.231	  0.457	  0.170	  0.253	 -9.617	 -0.019	 -0.182	 -0.103	 29.700	 99.132	 -0.109
68423	 -0.137	 -0.237	  0.460	 -0.420	  0.097	 -11.277	  0.018	 -0.098	 -0.056	 29.700	 99.136	 -0.467
68473	 -0.134	 -0.241	  0.455	 -0.292	  0.169	 -9.337	 -0.080	  0.046	 -0.128	 29.700	 99.147	 -1.453
68524	 -0.137	 -0.240	  0.458	 -0.423	 -0.047	 -10.351	  0.048	  0.158	  0.070	 29.700	 99.143	 -1.094
68574	 -0.145	 -0.236	  0.451	 -0.499	 -0.021	 -9.682	 -0.069	  0.312	  0.184	 29.700	 99.136	 -0.467
68623	 -0.154	 -0.242	  0.449	  0.256	 -0.218	 -9.872	 -0.103	  0.206	  0.270	 29.700	 99.132	 -0.109
68674	 -0.160	 -0.233	  0.447	  0.203	  0.092	 -9.712	 -0.097	  0.146	  0.035	 29.700	 99.120	  0.967
68723	 -0.160	 -0.242	  0.448	  0.493	 -0.620	 -10.689	 -0.055	 -0.025	 -0.009	 29.700	 99.140	 -0.825
68774	 -0.158	 -0.240	  0.447	  0.373	 -0.050	 -9.733	 -0.051	 -0.043	 -0.101	 29.700	 99.125	  0.519
68824	 -0.154	 -0.248	  0.443	  0.229	  0.217	 -9.779	 -0.068	 -0.059	 -0.135	 29.700	 99.136	 -0.467
68874	 -0.154	 -0.248	  0.445	  0.164	  0.168	 -9.799	 -0.060	 -0.050	 -0.003	 29.700	 99.136	 -0.467
68924	 -0.153	 -0.253	  0.448	 -0.204	  0.637	 -9.649	  0.006	 -0.002	  0.000	 29.700	 99.147	 -1.453
68973	 -0.155	 -0.248	  0.444	  0.151	  0.226	 -9.793	 -0.003	  0.002	  0.001	 29.700	 99.143	 -1.094
69024	 -0.152	 -0.241	  0.449	  0.099	  0.219	 -9.812	  0.002	  0.005	  0.000	 29.700	 99.136	 -0.467
69074	 -0.153	 -0.249	  0.443	 -0.017	  0.348	 -9.731	  0.017	  0.021	  0.002	 29.700	 99.136	 -0.467
69124	 -0.155	 -0.249	  0.446	 -0.127	  0.437	 -9.758	  0.075	  0.074	  0.002	 29.700	 99.132	 -0.109
69174	 -0.158	 -0.246	  0.450	  0.065	  0.295	 -9.788	  0.128	  0.123	  0.003	 29.700	 99.136	 -0.467
69224	 -0.158	 -0.240	  0.444	  0.448	 -0.129	 -9.623	 -0.030	 -0.069	 -0.015	 29.700	 99.136	 -0.467
69274	 -0.158	 -0.247	  0.446	  0.254	 -0.021	 -9.811	 -0.034	 -0.038	 -0.002	 29.700	 99.136	 -0.467
69324	 -0.157	 -0.243	  0.444	  0.163	  0.133	 -9.769	 -0.036	 -0.028	  0.002	 29.700	 99.136	 -0.467
69374	 -0.156	 -0.242	  0.445	  0.007	  0.259	 -9.750	 -0.022	 -0.012	  0.002	 29.700	 99.125	  0.519
69424	 -0.159	 -0.242	  0.447	 -0.251	  0.687	 -9.690	  0.104	  0.100	  0.002	 29.700	 99.136	 -0.467
69474	 -0.158	 -0.246	  0.445	 -0.046	  0.240	 -10.130	 -0.062	 -0.038	 -0.010	 29.700	 99.136	 -0.467
69524	 -0.157	 -0.242	  0.442	  0.161	  0.134	 -9.766	 -0.050	 -0.031	  0.001	 29.700	 99.136	 -0.467
69574	 -0.160	 -0.248	  0.447	  0.020	  0.345	 -9.748	 -0.027	 -0.020	 -0.002	 29.700	 99.136	 -0.467
69624	 -0.157	 -0.246	  0.446	  0.022	  0.294	 -9.756	  0.013	  0.020	  0.001	 29.700	 99.136	 -0.467
69674	 -0.156	 -0.245	  0.445	 -0.043	  0.340	 -9.782	  0.073	  0.070	  0.002	 29.700	 99.136	 -0.467
69724	 -0.158	 -0.243	  0.447	 -1.193	 -0.959	 -10.282	  0.002	 -0.070	 -0.008	 29.700	 99.136	 -0.467
69774	 -0.159	 -0.244	  0.447	  0.656	  0.420	 -9.627	 -0.031	 -0.003	  0.023	 29.700	 99.125	  0.519
69824	 -0.156	 -0.245	  0.447	  0.374	  0.154	 -9.725	 -0.008	 -0.007	  0.005	 29.700	 99.136	 -0.467
69874	 -0.159	 -0.242	  0.443	  0.393	  0.094	 -9.672	 -0.005	 -0.003	  0.001	 29.700	 99.136	 -0.467
69924	 -0.158	 -0.243	  0.446	  0.256	  0.054	 -9.801	  0.001	  0.003	  0.002	 29.700	 99.136	 -0.467
69974	 -0.157	 -0.242	  0.447	  0.206	  0.088	 -9.758	 -0.002	  0.003	  0.002	 29.700	 99.136	 -0.467
70024	 -0.156	 -0.242	  0.447	  0.197	  0.083	 -9.774	 -0.002	  0.004	  0.002	 29.700	 99.136	 -0.467
70074	 -0.158	 -0.245	  0.445	  0.198	  0.086	 -9.761	 -0.003	  0.003	  0.002	 29.700	 99.125	  0.519
70124	 -0.158	 -0.246	  0.447	  0.229	  0.081	 -9.760	 -0.003	  0.004	  0.001	 29.700	 99.136	 -0.467
70174	 -0.160	 -0.242	  0.445	  0.201	  0.101	 -9.761	 -0.003	  0.002	  0.001	 29.700	 99.129	  0.160
70224	 -0.158	 -0.248	  0.446	  0.228	  0.073	 -9.743	 -0.002	  0.002	  0.001	 29.700	 99.136	 -0.467
70274	 -0.158	 -0.244	  0.443	  0.232	  0.077	 -9.769	 -0.003	  0.003	  0.001	 29.700	 99.136	 -0.467
70324	 -0.157	 -0.246	  0.450	  0.200	  0.073	 -9.762	 -0.004	  0.002	  0.001	 29.700	 99.136	 -0.467
70374	 -0.158	 -0.240	  0.446	  0.218	  0.079	 -9.774	 -0.003	  0.002	  0.001	 29.700	 99.129	  0.160
70424	 -0.158	 -0.244	  0.445	  0.201	  0.076	 -9.768	 -0.004	  0.003	  0.000	 29.700	 99.125	  0.519
70474	 -0.158	 -0.244	  0.449	  0.227	  0.063	 -9.788	 -0.003	  0.003	  0.001	 29.700	 99.147	 -1.453
70524	 -0.157	 -0.244	  0.444	  0.211	  0.093	 -9.726	 -0.003	  0.002	  0.001	 29.700	 99.125	  0.519
70574	 -0.159	 -0.248	  0.447	  0.222	  0.065	 -9.796	 -0.003	  0.002	  0.001	 29.700	 99.125	  0.519
70624	 -0.158	 -0.244	  0.445	  0.196	  0.096	 -9.765	 -0.003	  0.002	  0.000	 29.700	 99.125	  0.519
70674	 -0.156	 -0.245	  0.442	  0.223	  0.091	 -9.782	 -0.003	  0.002	  0.001	 29.700	 99.125	  0.519
70724	 -0.160	 -0.241	  0.446	  0.234	  0.102	 -9.763	 -0.002	  0.003	  0.000	 29.700	 99.136	 -0.467
70774	 -0.157	 -0.244	  0.443	  0.215	  0.098	 -9.778	 -0.002	  0.002	 -0.001	 29.700	 99.136	 -0.467
70824	 -0.157	 -0.242	  0.445	  0.196	  0.116	 -9.771	 -0.003	  0.001	  0.001	 29.700	 99.140	 -0.825
70874	 -0.158	 -0.247	  0.447	  0.211	  0.079	 -9.746	 -0.003	  0.002	  0.001	 29.700	 99.136	 -0.467
70924	 -0.159	 -0.238	  0.446	  0.229	  0.079	 -9.764	 -0.002	  0.002	  0.000	 29.700	 99.136	 -0.467
70974	 -0.157	 -0.245	  0.447	  0.221	  0.095	 -9.776	 -0.003	  0.002	  0.001	 29.700	 99.136	 -0.467
71024	 -0.158	 -0.240	  0.448	  0.229	  0.073	 -9.774	 -0.004	  0.003	  0.001	 29.700	 99.147	 -1.453
71074	 -0.156	 -0.242	  0.444	  0.216	  0.066	 -9.709	 -0.003	  0.002	  0.000	 29.700	 99.136	 -0.467
71124	 -0.160	 -0.246	  0.448	  0.230	  0.109	 -9.793	 -0.004	  0.003	  0.001	 29.700	 99.147	 -1.453
71174	 -0.158	 -0.242	  0.447	  0.218	  0.083	 -9.752	 -0.003	  0.002	  0.000	 29.700	 99.140	 -0.825
71224	 -0.157	 -0.237	  0.451	  0.228	  0.081	 -9.746	 -0.002	  0.001	  0.001	 29.700	 99.151	 -1.811
71274	 -0.157	 -0.241	  0.443	  0.224	  0.078	 -9.753	 -0.003	  0.002	  0.001	 29.700	 99.136	 -0.467
71324	 -0.159	 -0.243	  0.447	  0.213	  0.081	 -9.759	 -0.003	  0.002	  0.001	 29.700	 99.140	 -0.825
71374	 -0.157	 -0.240	  0.445	  0.214	  0.091	 -9.737	 -0.002	  0.002	  0.000	 29.700	 99.129	  0.160
71424	 -0.159	 -0.245	  0.446	  0.223	  0.106	 -9.788	 -0.003	  0.001	  0.002	 29.700	 99.140	 -0.825
71474	 -0.156	 -0.242	  0.447	  0.233	  0.090	 -9.766	 -0.003	  0.003	 -0.000	 29.700	 99.140	 -0.825
71524	 -0.157	 -0.243	  0.446	  0.226	  0.084	 -9.752	 -0.001	  0.003	  0.001	 29.700	 99.140	 -0.825
71574	 -0.160	 -0.243	  0.446	  0.206	  0.093	 -9.775	 -0.004	  0.002	  0.001	 29.700	 99.140	 -0.825
71623	 -0.158	 -0.236	  0.448	  0.236	  0.089	 -9.774	 -0.003	  0.002	  0.001	 29.700	 99.125	  0.519
71673	 -0.158	 -0.240	  0.449	  0.226	  0.091	 -9.722	 -0.004	  0.003	  0.000	 29.700	 99.129	  0.160
71724	 -0.157	 -0.244	  0.445	  0.238	  0.074	 -9.749	 -0.003	  0.002	  0.000	 29.700	 99.129	  0.160
71774	 -0.157	 -0.239	  0.446	  0.223	  0.059	 -9.807	 -0.002	  0.002	  0.000	 29.700	 99.140	 -0.825
71824	 -0.154	 -0.241	  0.446	  0.253	  0.112	 -9.748	 -0.003	  0.002	  0.001	 29.700	 99.129	  0.160
71873	 -0.157	 -0.243	  0.449	  0.228	  0.087	 -9.789	 -0.003	  0.002	  0.001	 29.700	 99.129	  0.160
71923	 -0.160	 -0.241	  0.444	  0.248	  0.082	 -9.782	 -0.003	  0.003	  0.002	 29.700	 99.136	 -0.467
71973	 -0.160	 -0.241	  0.446	  0.222	  0.078	 -9.788	 -0.004	  0.003	  0.001	 29.700	 99.140	 -0.825
72023	 -0.157	 -0.241	  0.447	  0.227	  0.082	 -9.791	 -0.003	 -0.000	  0.001	 29.700	 99.129	  0.160
72073	 -0.158	 -0.244	  0.442	  0.230	  0.077	 -9.761	 -0.003	  0.003	  0.002	 29.700	 99.125	  0.519
72123	 -0.158	 -0.244	  0.445	  0.210	  0.097	 -9.742	 -0.004	  0.002	  0.001	 29.700	 99.129	  0.160
72173	 -0.159	 -0.246	  0.451	  0.207	  0.090	 -9.767	 -0.003	  0.002	  0.002	 29.700	 99.140	 -0.825
72223	 -0.158	 -0.243	  0.447	  0.224	  0.106	 -9.767	 -0.004	  0.003	  0.002	 29.700	 99.140	 -0.825
72273	 -0.158	 -0.243	  0.448	  0.235	  0.095	 -9.744	 -0.003	  0.002	  0.001	 29.700	 99.140	 -0.825
72323	 -0.157	 -0.239	  0.448	  0.222	  0.085	 -9.776	 -0.004	  0.001	  0.002	 29.700	 99.140	 -0.825
72373	 -0.156	 -0.239	  0.449	  0.221	  0.095	 -9.785	 -0.003	  0.002	  0.001	 29.700	 99.129	  0.160
72423	 -0.156	 -0.240	  0.449	  0.254	  0.085	 -9.782	 -0.004	  0.002	  0.001	 29.700	 99.140	 -0.825
72473	 -0.157	 -0.242	  0.442	  0.229	  0.102	 -9.778	 -0.003	  0.003	  0.001	 29.700	 99.140	 -0.825
72523	 -0.158	 -0.242	  0.445	  0.235	  0.092	 -9.789	 -0.003	  0.002	  0.001	 29.700	 99.140	 -0.825
72573	 -0.159	 -0.242	  0.442	  0.221	  0.088	 -9.776	 -0.003	  0.004	  0.002	 29.700	 99.140	 -0.825
72623	 -0.155	 -0.244	  0.445	  0.215	  0.107	 -9.730	 -0.003	  0.003	  0.002	 29.700	 99.129	  0.160
72673	 -0.159	 -0.236	  0.449	  0.231	  0.095	 -9.782	 -0.003	  0.002	  0.001	 29.700	 99.140	 -0.825
72723	 -0.159	 -0.244	  0.447	  0.219	  0.076	 -9.779	 -0.003	  0.002	  0.001	 29.700	 99.140	 -0.825
72773	 -0.158	 -0.242	  0.447	  0.216	  0.084	 -9.770	 -0.003	  0.003	  0.002	 29.700	 99.129	  0.160
72823	 -0.159	 -0.239	  0.448	  0.213	  0.122	 -9.747	 -0.002	  0.002	  0.001	 29.700	 99.144	 -1.184
72873	 -0.156	 -0.241	  0.447	  0.227	  0.076	 -9.781	 -0.003	  0.001	  0.000	 29.700	 99.129	  0.160
72923	 -0.159	 -0.240	  0.447	  0.218	  0.095	 -9.775	 -0.003	  0.001	  0.001	 29.700	 99.140	 -0.825
72973	 -0.159	 -0.243	  0.446	  0.231	  0.092	 -9.782	 -0.002	  0.002	  0.000	 29.700	 99.140	 -0.825
73023	 -0.157	 -0.236	  0.445	  0.219	  0.091	 -9.777	 -0.004	  0.001	  0.002	 29.700	 99.140	 -0.825
73073	 -0.157	 -0.242	  0.443	  0.247	  0.103	 -9.763	 -0.004	  0.002	  0.001	 29.700	 99.129	  0.160
73123	 -0.157	 -0.242	  0.447	  0.226	  0.096	 -9.769	 -0.004	  0.002	  0.001	 29.700	 99.129	  0.160
73173	 -0.157	 -0.243	  0.447	  0.219	  0.083	 -9.745	 -0.003	  0.002	  0.001	 29.700	 99.133	 -0.198
73224	 -0.159	 -0.242	  0.446	  0.223	  0.079	 -9.756	 -0.003	  0.002	  0.000	 29.700	 99.144	 -1.184
73274	 -0.159	 -0.245	  0.444	  0.240	  0.092	 -9.786	 -0.003	  0.001	  0.002	 29.700	 99.129	  0.160
73323	 -0.159	 -0.244	  0.447	  0.203	  0.085	 -9.771	 -0.003	  0.002	  0.000	 29.700	 99.129	  0.160
73374	 -0.157	 -0.238	  0.451	  0.203	  0.100	 -9.745	 -0.003	  0.002	  0.001	 29.700	 99.129	  0.160
73423	 -0.159	 -0.243	  0.448	  0.223	  0.095	 -9.764	 -0.004	  0.004	  0.001	 29.700	 99.129	  0.160
73473	 -0.157	 -0.242	  0.446	  0.222	  0.088	 -9.750	 -0.003	  0.003	  0.001	 29.700	 99.133	 -0.198
73523	 -0.159	 -0.238	  0.448	  0.220	  0.098	 -9.802	 -0.003	  0.002	  0.000	 29.700	 99.140	 -0.825
73574	 -0.158	 -0.241	  0.447	  0.227	  0.094	 -9.769	 -0.003	  0.003	  0.000	 29.700	 99.129	  0.160
73623	 -0.158	 -0.243	  0.451	  0.254	  0.111	 -9.772	 -0.003	  0.002	  0.001	 29.700	 99.140	 -0.825
73673	 -0.156	 -0.237	  0.444	  0.216	  0.079	 -9.779	 -0.003	  0.002	  0.001	 29.700	 99.140	 -0.825
73724	 -0.159	 -0.242	  0.446	  0.215	  0.079	 -9.772	 -0.004	  0.002	  0.002	 29.700	 99.155	 -2.170
73773	 -0.189	 -0.276	  0.464	  0.163	  0.104	 -9.753	 -0.001	  0.003	  0.004	 29.700	 99.129	  0.160
73823	 -0.171	 -0.244	  0.458	  0.312	  0.039	 -9.800	 -0.004	  0.004	  0.001	 29.700	 99.129	  0.160
73873	 -0.157	 -0.249	  0.454	  0.231	  0.045	 -9.779	 -0.001	  0.003	  0.001	 29.700	 99.129	  0.160
73923	 -0.157	 -0.243	  0.449	  0.209	  0.124	 -9.738	 -0.003	  0.004	  0.001	 29.700	 99.144	 -1.184
73973	 -0.159	 -0.235	  0.443	  0.248	  0.074	 -9.768	 -0.003	  0.003	  0.001	 29.700	 99.133	 -0.198
74023	 -0.156	 -0.236	  0.438	  0.230	  0.070	 -9.747	 -0.003	  0.002	  0.002	 29.700	 99.133	 -0.198
74073	 -0.157	 -0.233	  0.438	  0.209	  0.080	 -9.772	 -0.002	  0.002	  0.001	 29.700	 99.133	 -0.198
74124	 -0.156	 -0.237	  0.443	  0.217	  0.099	 -9.749	 -0.003	  0.002	  0.001	 29.700	 99.129	  0.160
74174	 -0.158	 -0.235	  0.439	  0.214	  0.082	 -9.786	 -0.004	  0.002	  0.001	 29.700	 99.133	 -0.198
74224	 -0.158	 -0.232	  0.442	  0.213	  0.090	 -9.763	 -0.003	  0.002	  0.002	 29.700	 99.140	 -0.825
74274	 -0.157	 -0.230	  0.443	  0.183	  0.082	 -9.774	 -0.004	  0.002	  0.001	 29.700	 99.133	 -0.198
74324	 -0.158	 -0.228	  0.440	  0.221	  0.097	 -9.784	 -0.003	  0.001	  0.002	 29.700	 99.133	 -0.198
74374	 -0.158	 -0.233	  0.439	  0.222	  0.088	 -9.787	 -0.003	  0.002	  0.001	 29.700	 99.140	 -0.825
74424	 -0.155	 -0.236	  0.440	  0.219	  0.091	 -9.770	 -0.003	  0.002	  0.002	 29.700	 99.129	  0.160
74474	 -0.157	 -0.238	  0.435	  0.203	  0.081	 -9.735	 -0.003	  0.002	  0.001	 29.700	 99.133	 -0.198
74524	 -0.156	 -0.231	  0.441	  0.243	  0.093	 -9.748	 -0.003	  0.003	  0.001	 29.700	 99.133	 -0.198
74574	 -0.159	 -0.239	  0.445	  0.236	  0.090	 -9.756	 -0.004	  0.002	  0.001	 29.700	 99.140	 -0.825
74624	 -0.157	 -0.236	  0.442	  0.228	  0.073	 -9.790	 -0.002	  0.001	  0.000	 29.700	 99.133	 -0.198
74674	 -0.158	 -0.236	  0.443	  0.230	  0.094	 -9.768	 -0.002	  0.002	 -0.000	 29.700	 99.140	 -0.825
74724	 -0.158	 -0.234	  0.442	  0.235	  0.078	 -9.763	 -0.003	  0.002	  0.002	 29.700	 99.133	 -0.198
74774	 -0.156	 -0.231	  0.442	  0.241	  0.088	 -9.782	 -0.003	  0.002	  0.001	 29.700	 99.144	 -1.184
74824	 -0.155	 -0.232	  0.440	  0.216	  0.093	 -9.776	 -0.002	  0.002	  0.001	 29.700	 99.133	 -0.198
74874	 -0.155	 -0.233	  0.438	  0.220	  0.084	 -9.774	 -0.004	  0.002	  0.001	 29.700	 99.133	 -0.198
74924	 -0.158	 -0.238	  0.439	  0.223	  0.082	 -9.757	 -0.003	  0.003	  0.001	 29.700	 99.144	 -1.184
74974	 -0.158	 -0.237	  0.437	  0.235	  0.091	 -9.806	 -0.004	  0.003	  0.002	 29.700	 99.144	 -1.184
75024	 -0.158	 -0.232	  0.443	  0.241	  0.099	 -9.773	 -0.003	  0.002	  0.001	 29.700	 99.144	 -1.184
75074	 -0.158	 -0.235	  0.435	  0.206	  0.083	 -9.794	 -0.003	  0.002	  0.001	 29.700	 99.144	 -1.184
75124	 -0.157	 -0.240	  0.437	  0.228	  0.084	 -9.756	 -0.004	  0.002	  0.000	 29.700	 99.144	 -1.184
75174	 -0.158	 -0.232	  0.442	  0.228	  0.080	 -9.816	 -0.003	  0.002	  0.001	 29.700	 99.144	 -1.184
75224	 -0.157	 -0.237	  0.442	  0.236	  0.091	 -9.769	 -0.002	  0.001	  0.001	 29.700	 99.133	 -0.198
75274	 -0.159	 -0.236	  0.439	  0.224	  0.097	 -9.753	 -0.002	  0.002	  0.001	 29.700	 99.133	 -0.198
75324	 -0.157	 -0.235	  0.435	  0.221	  0.069	 -9.766	 -0.004	  0.002	  0.001	 29.700	 99.144	 -1.184
75374	 -0.157	 -0.235	  0.438	  0.236	  0.089	 -9.759	 -0.003	  0.003	  0.000	 29.700	 99.144	 -1.184
75424	 -0.158	 -0.232	  0.440	  0.223	  0.087	 -9.765	 -0.004	  0.003	  0.001	 29.700	 99.144	 -1.184
75474	 -0.158	 -0.236	  0.438	  0.214	  0.096	 -9.758	 -0.003	  0.002	  0.002	 29.700	 99.133	 -0.198
75524	 -0.159	 -0.231	  0.440	  0.241	  0.092	 -9.757	 -0.003	  0.001	  0.001	 29.700	 99.144	 -1.184
75574	 -0.156	 -0.230	  0.441	  0.229	  0.111	 -9.741	 -0.003	  0.002	  0.001	 29.700	 99.133	 -0.198
75624	 -0.157	 -0.232	  0.439	  0.213	  0.086	 -9.774	 -0.003	  0.002	  0.002	 29.700	 99.144	 -1.184
75674	 -0.157	 -0.237	  0.442	  0.206	  0.086	 -9.796	 -0.003	  0.001	  0.001	 29.700	 99.144	 -1.184
75724	 -0.160	 -0.235	  0.439	  0.227	  0.097	 -9.743	 -0.004	  0.002	  0.002	 29.700	 99.144	 -1.184
75774	 -0.157	 -0.234	  0.442	  0.206	  0.084	 -9.778	 -0.003	  0.002	  0.001	 29.700	 99.133	 -0.198
75824	 -0.156	 -0.237	  0.442	  0.228	  0.079	 -9.766	 -0.004	  0.002	  0.001	 29.700	 99.133	 -0.198
75874	 -0.156	 -0.235	  0.440	  0.204	  0.101	 -9.749	 -0.004	  0.002	  0.002	 29.700	 99.144	 -1.184
75924	 -0.159	 -0.233	  0.442	  0.205	  0.083	 -9.767	 -0.003	  0.002	  0.001	 29.700	 99.144	 -1.184
75974	 -0.160	 -0.236	  0.438	  0.223	  0.091	 -9.759	 -0.003	  0.003	  0.001	 29.700	 99.133	 -0.198
76024	 -0.156	 -0.236	  0.442	  0.208	  0.061	 -9.783	 -0.003	  0.001	  0.001	 29.700	 99.144	 -1.184
76074	 -0.158	 -0.234	  0.438	  0.228	  0.081	 -9.763	 -0.003	  0.003	  0.001	 29.700	 99.144	 -1.184
76124	 -0.157	 -0.236	  0.442	  0.225	  0.085	 -9.770	 -0.004	  0.002	  0.001	 29.700	 99.133	 -0.198
76174	 -0.158	 -0.234	  0.442	  0.227	  0.105	 -9.759	 -0.003	  0.002	  0.001	 29.700	 99.133	 -0.198
76224	 -0.159	 -0.231	  0.443	  0.204	  0.079	 -9.785	 -0.003	  0.002	  0.000	 29.700	 99.133	 -0.198
76274	 -0.156	 -0.237	  0.440	  0.213	  0.114	 -9.798	 -0.002	  0.003	  0.001	 29.700	 99.144	 -1.184
76324	 -0.157	 -0.237	  0.434	  0.230	  0.081	 -9.735	 -0.004	  0.002	  0.001	 29.800	 99.148	 -1.543
76374	 -0.156	 -0.231	  0.438	  0.223	  0.085	 -9.771	 -0.003	  0.001	  0.000	 29.800	 99.133	 -0.198
76424	 -0.158	 -0.236	  0.436	  0.221	  0.081	 -9.754	 -0.004	  0.003	  0.000	 29.700	 99.133	 -0.198
76474	 -0.156	 -0.234	  0.441	  0.226	  0.102	 -9.786	 -0.004	  0.002	 -0.000	 29.700	 99.137	 -0.557
76524	 -0.157	 -0.227	  0.438	  0.235	  0.079	 -9.799	 -0.003	  0.001	  0.001	 29.700	 99.133	 -0.198
76574	 -0.157	 -0.230	  0.442	  0.208	  0.102	 -9.750	 -0.003	  0.002	  0.000	 29.700	 99.137	 -0.557
76624	 -0.156	 -0.237	  0.440	  0.236	  0.092	 -9.772	 -0.002	  0.003	  0.001	 29.700	 99.133	 -0.198
76674	 -0.159	 -0.236	  0.443	  0.207	  0.088	 -9.780	 -0.004	  0.003	  0.001	 29.700	 99.137	 -0.557
