Time	 MagX	 MagY	 MagZ	 AccelX	 AccelY	 AccelZ	 Yaw	 Pitch	 Roll	 Temperature	 Pressure	 Altitude
5291	  0.466	  0.247	  0.398	  0.057	 -0.005	 -9.792	 -0.004	  0.003	  0.000	 33.000	 99.119	 -99999.000
5341	  0.468	  0.250	  0.394	  0.034	 -0.020	 -9.754	 -0.004	  0.004	  0.000	 33.000	 99.119	 -99999.000
5391	  0.467	  0.250	  0.393	  0.048	 -0.015	 -9.718	 -0.004	  0.002	  0.000	 33.000	 99.119	 -99999.000
5441	  0.468	  0.247	  0.395	  0.066	 -0.006	 -9.785	 -0.003	  0.003	  0.000	 33.000	 99.119	 -99999.000
5491	  0.468	  0.247	  0.395	  0.048	 -0.022	 -9.740	 -0.004	  0.002	  0.000	 33.100	 99.112	 -99999.000
5541	  0.467	  0.248	  0.395	  0.048	 -0.007	 -9.773	 -0.004	  0.003	  0.000	 33.100	 99.123	 -99999.000
5591	  0.466	  0.250	  0.398	  0.044	 -0.025	 -9.773	 -0.002	  0.002	 -0.000	 33.000	 99.130	 -99999.000
5641	  0.468	  0.251	  0.397	  0.060	  0.004	 -9.757	 -0.003	  0.002	  0.000	 33.000	 99.119	 -99999.000
5691	  0.467	  0.248	  0.395	  0.063	  0.004	 -9.733	 -0.004	  0.003	  0.001	 33.000	 99.119	 -99999.000
5741	  0.468	  0.248	  0.397	  0.066	 -0.021	 -9.749	 -0.005	  0.002	  0.001	 33.000	 99.112	 -99999.000
5791	  0.468	  0.249	  0.394	  0.045	 -0.013	 -9.747	 -0.003	  0.002	  0.001	 33.000	 99.108	 -99999.000
5841	  0.464	  0.248	  0.398	  0.049	 -0.006	 -9.779	 -0.003	  0.002	 -0.001	 33.000	 99.119	 -99999.000
5891	  0.468	  0.250	  0.394	  0.049	 -0.023	 -9.770	 -0.003	  0.002	 -0.000	 33.000	 99.108	 -99999.000
5941	  0.467	  0.245	  0.396	  0.069	  0.001	 -9.740	 -0.003	  0.002	  0.001	 33.000	 99.135	 -99999.000
5991	  0.468	  0.249	  0.396	  0.068	 -0.030	 -9.756	 -0.004	  0.003	  0.001	 33.000	 99.123	 -99999.000
6041	  0.466	  0.248	  0.401	  0.041	 -0.005	 -9.751	 -0.003	  0.003	  0.000	 33.000	 99.108	 -99999.000
6091	  0.468	  0.249	  0.395	  0.056	 -0.001	 -9.747	 -0.004	  0.002	  0.000	 33.000	 99.119	 -99999.000
6141	  0.467	  0.249	  0.393	  0.053	 -0.022	 -9.759	 -0.003	  0.002	  0.001	 33.000	 99.119	 -99999.000
6191	  0.467	  0.252	  0.394	  0.061	 -0.020	 -9.725	 -0.004	  0.002	  0.001	 33.000	 99.123	 -99999.000
6241	  0.467	  0.248	  0.393	  0.091	  0.017	 -9.746	 -0.004	  0.002	  0.001	 33.000	 99.112	 -99999.000
6291	  0.466	  0.247	  0.399	  0.060	 -0.026	 -9.759	 -0.004	  0.001	 -0.000	 33.000	 99.119	 -99999.000
6342	  0.468	  0.247	  0.396	  0.049	  0.018	 -9.783	 -0.004	  0.002	 -0.000	 33.100	 99.123	 -99999.000
6391	  0.464	  0.247	  0.398	  0.059	 -0.024	 -9.738	 -0.003	  0.004	  0.000	 33.000	 99.123	 -99999.000
6441	  0.465	  0.249	  0.396	  0.054	  0.000	 -9.774	 -0.002	  0.002	  0.002	 33.100	 99.123	 -99999.000
6491	  0.467	  0.245	  0.395	  0.056	 -0.027	 -9.735	 -0.003	  0.002	  0.001	 33.000	 99.123	 -99999.000
6541	  0.468	  0.246	  0.396	  0.055	 -0.012	 -9.762	 -0.003	  0.003	  0.002	 33.000	 99.108	 -99999.000
6591	  0.468	  0.252	  0.398	  0.060	 -0.018	 -9.797	 -0.003	  0.004	 -0.000	 33.000	 99.123	 -99999.000
6641	  0.467	  0.246	  0.395	  0.063	 -0.029	 -9.722	 -0.004	  0.003	  0.000	 33.000	 99.123	 -99999.000
6691	  0.468	  0.247	  0.397	  0.067	  0.029	 -9.749	 -0.003	  0.002	  0.000	 33.000	 99.119	 -99999.000
6741	  0.470	  0.252	  0.394	  0.054	 -0.007	 -9.739	 -0.004	  0.002	 -0.000	 33.000	 99.123	 -99999.000
6792	  0.466	  0.249	  0.397	  0.071	 -0.013	 -9.747	 -0.003	  0.002	  0.001	 33.100	 99.112	 -99999.000
6842	  0.467	  0.246	  0.397	  0.069	 -0.032	 -9.738	 -0.003	  0.002	 -0.000	 33.000	 99.130	 -99999.000
6892	  0.467	  0.250	  0.393	  0.057	 -0.010	 -9.775	 -0.003	  0.003	  0.000	 33.000	 99.123	 -99999.000
6942	  0.468	  0.247	  0.391	  0.033	 -0.017	 -9.748	 -0.002	  0.001	  0.000	 33.000	 99.123	 -99999.000
6992	  0.470	  0.252	  0.394	  0.042	 -0.004	 -9.786	 -0.003	  0.002	  0.001	 33.000	 99.112	 -99999.000
7042	  0.466	  0.250	  0.396	  0.068	  0.006	 -9.760	 -0.004	  0.003	  0.001	 33.000	 99.119	 -99999.000
7092	  0.467	  0.248	  0.395	  0.045	 -0.001	 -9.769	 -0.003	  0.003	  0.001	 33.100	 99.112	 -99999.000
7142	  0.466	  0.250	  0.394	  0.075	 -0.002	 -9.787	 -0.003	  0.003	  0.001	 33.000	 99.119	 -99999.000
7192	  0.466	  0.249	  0.396	  0.064	  0.005	 -9.761	 -0.004	  0.003	  0.000	 33.000	 99.123	 -99999.000
7242	  0.467	  0.249	  0.393	  0.046	 -0.028	 -9.759	 -0.004	  0.003	  0.001	 33.000	 99.123	 -99999.000
7292	  0.468	  0.248	  0.394	  0.082	  0.002	 -9.761	 -0.005	  0.002	  0.001	 33.000	 99.119	 -99999.000
7342	  0.467	  0.249	  0.396	  0.051	 -0.031	 -9.753	 -0.003	  0.001	  0.001	 33.000	 99.112	 -99999.000
7392	  0.468	  0.247	  0.397	  0.088	 -0.009	 -9.768	 -0.004	  0.001	  0.001	 33.000	 99.123	 -99999.000
7442	  0.468	  0.250	  0.392	  0.047	 -0.017	 -9.739	 -0.002	  0.002	  0.001	 33.000	 99.119	 -99999.000
7492	  0.466	  0.256	  0.396	  0.071	 -0.008	 -9.747	 -0.003	  0.002	  0.000	 33.000	 99.123	 -99999.000
7542	  0.466	  0.253	  0.396	  0.078	 -0.010	 -9.753	 -0.004	  0.004	  0.000	 33.000	 99.135	 -99999.000
7592	  0.468	  0.247	  0.394	  0.054	 -0.012	 -9.777	 -0.003	  0.002	  0.001	 33.000	 99.123	 -99999.000
7642	  0.466	  0.249	  0.397	  0.069	 -0.007	 -9.771	 -0.002	  0.003	  0.000	 33.000	 99.123	 -99999.000
7692	  0.469	  0.253	  0.398	  0.037	 -0.005	 -9.752	 -0.003	  0.003	  0.000	 33.000	 99.112	 -99999.000
7742	  0.468	  0.249	  0.395	  0.050	 -0.024	 -9.767	 -0.004	  0.002	  0.000	 33.000	 99.112	 -99999.000
7792	  0.468	  0.248	  0.396	  0.074	 -0.030	 -9.793	 -0.003	  0.002	  0.001	 33.000	 99.123	 -99999.000
7842	  0.468	  0.253	  0.392	  0.080	 -0.006	 -9.761	 -0.003	  0.002	  0.001	 33.000	 99.119	 -99999.000
7892	  0.467	  0.252	  0.393	  0.050	 -0.012	 -9.782	 -0.005	  0.004	  0.000	 33.000	 99.130	 -99999.000
7942	  0.468	  0.248	  0.399	  0.080	 -0.028	 -9.725	 -0.004	  0.002	  0.001	 33.000	 99.112	 -99999.000
7992	  0.470	  0.249	  0.394	  0.066	 -0.018	 -9.754	 -0.004	  0.003	  0.001	 33.000	 99.108	 -99999.000
8042	  0.467	  0.250	  0.396	  0.081	 -0.029	 -9.757	 -0.004	  0.002	  0.000	 33.000	 99.123	 -99999.000
8092	  0.470	  0.249	  0.395	  0.064	  0.015	 -9.761	 -0.003	  0.003	  0.001	 33.000	 99.112	 -99999.000
8142	  0.468	  0.249	  0.397	  0.063	  0.001	 -9.724	 -0.004	  0.004	  0.001	 33.000	 99.112	 -99999.000
8192	  0.468	  0.249	  0.395	  0.057	  0.003	 -9.766	 -0.003	  0.001	  0.001	 33.000	 99.108	 -99999.000
8242	  0.467	  0.244	  0.395	  0.045	 -0.011	 -9.776	 -0.004	  0.002	  0.001	 33.000	 99.123	 -99999.000
8292	  0.468	  0.247	  0.396	  0.061	  0.009	 -9.751	 -0.004	  0.003	  0.002	 33.000	 99.123	 -99999.000
8342	  0.468	  0.245	  0.398	  0.070	 -0.019	 -9.771	 -0.003	  0.002	  0.001	 33.000	 99.119	 -99999.000
8392	  0.467	  0.251	  0.393	  0.052	 -0.013	 -9.758	 -0.002	  0.002	  0.001	 33.000	 99.135	 -99999.000
8442	  0.468	  0.249	  0.389	  0.052	 -0.014	 -9.747	 -0.004	  0.003	  0.002	 33.000	 99.123	 -99999.000
8492	  0.467	  0.245	  0.397	  0.068	  0.001	 -9.744	 -0.003	  0.003	  0.000	 33.000	 99.123	 -99999.000
8542	  0.466	  0.248	  0.396	  0.054	  0.003	 -9.792	 -0.003	  0.003	  0.002	 33.000	 99.123	 -99999.000
8592	  0.467	  0.248	  0.398	  0.055	  0.001	 -9.765	 -0.004	  0.003	 -0.000	 33.000	 99.123	 -99999.000
8642	  0.468	  0.249	  0.395	  0.071	 -0.020	 -9.772	 -0.004	  0.002	  0.001	 33.000	 99.112	 -99999.000
8692	  0.468	  0.250	  0.396	  0.056	 -0.002	 -9.774	 -0.004	  0.002	  0.000	 33.000	 99.119	 -99999.000
8742	  0.467	  0.247	  0.398	  0.070	 -0.007	 -9.761	 -0.004	  0.003	 -0.000	 33.000	 99.112	 -99999.000
8792	  0.466	  0.247	  0.399	  0.074	  0.011	 -9.754	 -0.003	  0.002	  0.000	 33.000	 99.123	 -99999.000
8842	  0.468	  0.250	  0.398	  0.067	 -0.015	 -9.781	 -0.003	  0.004	  0.001	 33.000	 99.123	 -99999.000
8892	  0.468	  0.248	  0.395	  0.058	 -0.017	 -9.733	 -0.004	  0.002	  0.001	 33.000	 99.108	 -99999.000
8942	  0.468	  0.250	  0.394	  0.061	 -0.010	 -9.751	 -0.004	  0.001	  0.000	 33.000	 99.108	 -99999.000
8992	  0.467	  0.248	  0.391	  0.065	  0.021	 -9.779	 -0.004	  0.001	  0.001	 33.000	 99.112	 -99999.000
9042	  0.467	  0.247	  0.398	  0.085	 -0.037	 -9.770	 -0.003	  0.004	 -0.000	 33.000	 99.123	 -99999.000
9092	  0.468	  0.249	  0.394	  0.066	  0.001	 -9.754	 -0.004	  0.003	  0.001	 33.000	 99.112	 -99999.000
9142	  0.467	  0.251	  0.399	  0.059	 -0.018	 -9.739	 -0.003	  0.001	  0.000	 33.000	 99.123	 -99999.000
9192	  0.465	  0.249	  0.398	  0.076	 -0.026	 -9.764	 -0.003	  0.003	  0.000	 33.000	 99.123	 -99999.000
9242	  0.467	  0.245	  0.392	  0.061	 -0.027	 -9.786	 -0.004	  0.004	 -0.000	 33.000	 99.123	 -99999.000
9292	  0.466	  0.250	  0.396	  0.056	 -0.005	 -9.780	 -0.003	  0.002	  0.001	 33.000	 99.123	 -99999.000
9342	  0.468	  0.249	  0.398	  0.055	  0.005	 -9.752	 -0.005	  0.002	  0.002	 33.000	 99.123	 -99999.000
9392	  0.468	  0.248	  0.397	  0.060	 -0.001	 -9.775	 -0.004	  0.001	  0.000	 33.000	 99.108	 -99999.000
9442	  0.466	  0.249	  0.396	  0.051	 -0.044	 -9.744	 -0.004	  0.004	  0.000	 33.000	 99.123	 -99999.000
9492	  0.467	  0.250	  0.397	  0.034	 -0.002	 -9.795	 -0.004	  0.004	  0.001	 33.000	 99.112	 -99999.000
9542	  0.466	  0.248	  0.393	  0.037	 -0.025	 -9.756	 -0.003	  0.001	 -0.000	 33.000	 99.119	 -99999.000
9592	  0.468	  0.248	  0.396	  0.081	  0.002	 -9.755	 -0.005	  0.004	 -0.000	 33.000	 99.119	 -99999.000
9641	  0.466	  0.252	  0.396	  0.056	  0.004	 -9.787	 -0.004	  0.001	  0.000	 33.000	 99.123	 -99999.000
9691	  0.466	  0.249	  0.393	  0.041	 -0.006	 -9.767	 -0.003	  0.001	 -0.001	 33.000	 99.112	 -99999.000
9741	  0.468	  0.253	  0.395	  0.071	 -0.007	 -9.780	 -0.004	  0.002	  0.000	 33.000	 99.112	 -99999.000
9791	  0.467	  0.252	  0.396	  0.065	 -0.008	 -9.772	 -0.003	  0.002	  0.001	 33.100	 99.123	 -99999.000
9841	  0.467	  0.249	  0.396	  0.068	 -0.015	 -9.765	 -0.003	  0.003	  0.001	 33.000	 99.112	 -99999.000
9891	  0.467	  0.249	  0.391	  0.074	 -0.001	 -9.766	 -0.002	  0.002	  0.002	 33.000	 99.112	 -99999.000
9941	  0.468	  0.247	  0.395	  0.060	 -0.026	 -9.753	 -0.004	  0.004	  0.001	 33.000	 99.123	 -99999.000
9991	  0.468	  0.249	  0.395	  0.057	 -0.014	 -9.755	 -0.003	  0.002	  0.001	 33.000	 99.108	 -99999.000
10041	  0.470	  0.250	  0.397	  0.073	 -0.013	 -9.778	 -0.004	  0.002	  0.000	 33.000	 99.112	 -99999.000
10091	  0.467	  0.248	  0.387	  0.065	  0.009	 -9.753	 -0.003	  0.001	  0.001	 33.000	 99.119	 -99999.000
10141	  0.467	  0.246	  0.397	  0.079	 -0.008	 -9.753	 -0.003	  0.003	  0.001	 33.000	 99.112	 -99999.000
10192	  0.467	  0.249	  0.392	  0.051	 -0.043	 -9.740	 -0.006	  0.002	  0.000	 33.100	 99.112	 -99999.000
10242	  0.468	  0.250	  0.397	  0.063	 -0.023	 -9.750	 -0.003	  0.002	  0.000	 33.000	 99.112	 -99999.000
10291	  0.468	  0.249	  0.398	  0.055	 -0.017	 -9.741	 -0.004	  0.002	  0.001	 33.000	 99.123	 -99999.000
10341	  0.467	  0.248	  0.396	  0.038	 -0.033	 -9.771	 -0.004	  0.003	  0.002	 33.000	 99.108	 -99999.000
10391	  0.468	  0.248	  0.394	  0.050	 -0.013	 -9.775	 -0.003	  0.003	 -0.000	 33.000	 99.112	 -99999.000
10441	  0.468	  0.252	  0.397	  0.056	 -0.012	 -9.771	 -0.004	  0.002	  0.000	 33.000	 99.112	 -99999.000
10491	  0.465	  0.251	  0.394	  0.047	 -0.002	 -9.756	 -0.003	  0.002	  0.000	 33.000	 99.135	 -99999.000
10541	  0.468	  0.248	  0.390	  0.075	 -0.014	 -9.727	 -0.004	  0.003	  0.001	 33.000	 99.135	 -99999.000
10591	  0.467	  0.247	  0.396	  0.045	 -0.013	 -9.779	 -0.003	  0.004	  0.001	 33.000	 99.123	 -99999.000
10641	  0.467	  0.251	  0.393	  0.038	 -0.037	 -9.774	 -0.003	  0.003	 -0.001	 33.000	 99.112	 -99999.000
10691	  0.468	  0.246	  0.398	  0.063	  0.007	 -9.757	 -0.005	  0.002	 -0.001	 33.000	 99.123	 -99999.000
10741	  0.467	  0.245	  0.394	  0.052	 -0.013	 -9.780	 -0.004	  0.002	 -0.000	 33.100	 99.112	 -99999.000
10791	  0.468	  0.247	  0.396	  0.045	 -0.025	 -9.785	 -0.004	  0.001	  0.000	 33.000	 99.112	 -99999.000
10841	  0.469	  0.258	  0.393	  0.062	 -0.022	 -9.745	 -0.003	  0.002	  0.000	 33.000	 99.112	 -99999.000
10891	  0.466	  0.249	  0.394	  0.061	 -0.015	 -9.735	 -0.004	  0.002	  0.000	 33.000	 99.123	 -99999.000
10941	  0.468	  0.246	  0.392	  0.052	 -0.031	 -9.744	 -0.004	  0.002	 -0.000	 33.000	 99.112	 -99999.000
10991	  0.467	  0.247	  0.393	  0.062	 -0.027	 -9.765	 -0.004	  0.002	  0.001	 33.000	 99.123	 -99999.000
11041	  0.468	  0.250	  0.395	  0.057	 -0.010	 -9.761	 -0.005	  0.003	  0.001	 33.000	 99.108	 -99999.000
11091	  0.466	  0.251	  0.396	  0.040	 -0.022	 -9.776	 -0.003	  0.002	  0.001	 33.000	 99.123	 -99999.000
11141	  0.468	  0.249	  0.397	  0.061	 -0.024	 -9.745	 -0.004	  0.003	  0.001	 33.000	 99.119	 -99999.000
11191	  0.468	  0.247	  0.395	  0.034	 -0.026	 -9.774	 -0.003	  0.001	  0.001	 33.100	 99.112	 -99999.000
11241	  0.467	  0.249	  0.397	  0.057	 -0.007	 -9.730	 -0.003	  0.003	 -0.000	 33.000	 99.123	 -99999.000
24067	  0.467	  0.248	  0.396	  0.080	 -0.018	 -9.809	 -0.004	  0.001	  0.000	 33.100	 99.112	  0.530
24117	  0.467	  0.248	  0.392	  0.046	 -0.024	 -9.766	 -0.003	  0.003	  0.001	 33.000	 99.123	 -0.469
24167	  0.468	  0.247	  0.398	  0.063	 -0.017	 -9.760	 -0.005	  0.002	  0.001	 33.000	 99.123	 -0.469
24217	  0.469	  0.253	  0.396	  0.059	 -0.012	 -9.768	 -0.004	  0.001	 -0.000	 33.000	 99.123	 -0.469
24267	  0.468	  0.255	  0.395	  0.058	 -0.011	 -9.793	 -0.005	  0.002	  0.001	 33.100	 99.127	 -0.832
24317	  0.468	  0.249	  0.397	  0.071	 -0.004	 -9.764	 -0.005	  0.003	  0.001	 33.000	 99.123	 -0.469
24367	  0.468	  0.245	  0.399	  0.048	 -0.014	 -9.778	 -0.002	  0.003	  0.001	 33.000	 99.112	  0.530
24417	  0.468	  0.247	  0.396	  0.076	  0.003	 -9.756	 -0.003	  0.001	  0.001	 33.000	 99.135	 -1.559
24467	  0.466	  0.248	  0.397	  0.047	 -0.014	 -9.759	 -0.005	  0.002	  0.001	 33.000	 99.123	 -0.469
24517	  0.468	  0.249	  0.397	  0.065	 -0.024	 -9.734	 -0.004	  0.002	  0.001	 33.000	 99.123	 -0.469
24567	  0.468	  0.254	  0.395	  0.036	 -0.025	 -9.777	 -0.003	  0.004	  0.001	 33.100	 99.105	  1.165
24617	  0.468	  0.246	  0.400	  0.072	 -0.006	 -9.735	 -0.005	  0.003	 -0.000	 33.000	 99.123	 -0.469
24667	  0.468	  0.249	  0.395	  0.049	 -0.020	 -9.762	 -0.003	  0.001	  0.000	 33.000	 99.123	 -0.469
24717	  0.467	  0.251	  0.398	  0.064	  0.012	 -9.737	 -0.004	  0.002	  0.002	 33.000	 99.123	 -0.469
24767	  0.469	  0.253	  0.392	  0.067	 -0.035	 -9.785	 -0.004	  0.004	  0.000	 33.000	 99.112	  0.530
24817	  0.465	  0.248	  0.394	  0.063	 -0.039	 -9.778	 -0.003	  0.003	  0.001	 33.100	 99.123	 -0.469
24867	  0.468	  0.249	  0.396	  0.075	 -0.008	 -9.768	 -0.003	  0.002	  0.000	 33.000	 99.123	 -0.469
24917	  0.466	  0.249	  0.398	  0.091	 -0.021	 -9.742	 -0.003	  0.004	  0.001	 33.000	 99.112	  0.530
24967	  0.466	  0.247	  0.396	  0.036	  0.001	 -9.768	 -0.004	  0.003	  0.000	 33.100	 99.105	  1.165
25017	  0.466	  0.251	  0.398	  0.072	 -0.016	 -9.762	 -0.005	  0.002	 -0.000	 33.000	 99.112	  0.530
25067	  0.467	  0.249	  0.396	  0.051	 -0.019	 -9.794	 -0.004	  0.002	  0.000	 33.000	 99.123	 -0.469
25117	  0.465	  0.249	  0.391	  0.059	  0.005	 -9.778	 -0.003	  0.002	  0.001	 33.100	 99.112	  0.530
25167	  0.466	  0.246	  0.394	  0.068	 -0.015	 -9.771	 -0.004	  0.003	  0.000	 33.000	 99.123	 -0.469
25217	  0.467	  0.251	  0.396	  0.049	 -0.006	 -9.750	 -0.003	  0.002	  0.001	 33.000	 99.112	  0.530
25267	  0.467	  0.247	  0.392	  0.058	 -0.020	 -9.761	 -0.004	  0.002	  0.001	 33.000	 99.123	 -0.469
25317	  0.465	  0.247	  0.397	  0.106	 -0.002	 -9.846	 -0.003	  0.005	  0.001	 33.100	 99.127	 -0.832
25367	  0.465	  0.249	  0.397	  0.016	 -0.038	 -9.788	 -0.004	  0.001	  0.000	 33.000	 99.123	 -0.469
25417	  0.467	  0.250	  0.396	  0.073	  0.013	 -9.760	 -0.003	  0.002	  0.000	 33.000	 99.123	 -0.469
25467	  0.469	  0.251	  0.397	  0.045	 -0.014	 -9.747	 -0.002	  0.004	 -0.001	 33.100	 99.127	 -0.832
25517	  0.467	  0.246	  0.395	  0.056	 -0.003	 -9.782	 -0.004	  0.003	  0.001	 33.000	 99.123	 -0.469
25567	  0.466	  0.252	  0.393	  0.080	 -0.020	 -9.746	 -0.004	  0.002	 -0.000	 33.000	 99.112	  0.530
25617	  0.468	  0.251	  0.396	  0.053	  0.026	 -9.759	 -0.002	  0.003	  0.002	 33.000	 99.112	  0.530
25667	  0.468	  0.251	  0.394	  0.067	  0.003	 -9.760	 -0.004	  0.002	  0.002	 33.000	 99.135	 -1.559
25717	  0.470	  0.246	  0.395	  0.039	 -0.033	 -9.757	 -0.003	  0.002	  0.000	 33.000	 99.123	 -0.469
25767	  0.468	  0.248	  0.396	  0.072	 -0.018	 -9.773	 -0.004	  0.003	  0.000	 33.000	 99.123	 -0.469
25817	  0.466	  0.247	  0.397	  0.071	 -0.034	 -9.781	 -0.003	  0.003	  0.001	 33.100	 99.127	 -0.832
25867	  0.468	  0.247	  0.396	  0.052	  0.012	 -9.743	 -0.004	  0.002	  0.001	 33.000	 99.112	  0.530
25917	  0.467	  0.247	  0.397	  0.057	 -0.022	 -9.745	 -0.004	  0.003	  0.000	 33.000	 99.112	  0.530
25967	  0.468	  0.247	  0.397	  0.046	  0.005	 -9.794	 -0.003	  0.002	  0.001	 33.000	 99.112	  0.530
26017	  0.470	  0.250	  0.396	  0.070	  0.023	 -9.794	 -0.004	  0.002	 -0.000	 33.000	 99.112	  0.530
26067	  0.470	  0.248	  0.399	  0.054	 -0.009	 -9.773	 -0.004	  0.003	  0.000	 33.000	 99.112	  0.530
26117	  0.468	  0.246	  0.394	  0.058	  0.003	 -9.777	 -0.004	  0.003	  0.000	 33.000	 99.112	  0.530
26167	  0.468	  0.250	  0.399	  0.052	 -0.022	 -9.752	 -0.004	  0.002	 -0.000	 33.000	 99.123	 -0.469
26217	  0.468	  0.248	  0.397	  0.068	 -0.002	 -9.728	 -0.004	  0.004	  0.000	 33.100	 99.116	  0.167
26267	  0.470	  0.250	  0.396	  0.052	 -0.014	 -9.755	 -0.003	  0.003	 -0.001	 33.000	 99.123	 -0.469
26317	  0.467	  0.246	  0.396	  0.054	 -0.014	 -9.760	 -0.003	  0.002	  0.000	 33.000	 99.112	  0.530
26367	  0.468	  0.244	  0.402	  0.085	 -0.015	 -9.765	 -0.002	  0.002	  0.000	 33.000	 99.101	  1.529
26417	  0.468	  0.247	  0.397	  0.064	 -0.009	 -9.787	 -0.003	  0.003	  0.000	 33.100	 99.123	 -0.469
26467	  0.468	  0.247	  0.391	  0.050	 -0.012	 -9.770	 -0.003	  0.002	 -0.000	 33.000	 99.112	  0.530
26517	  0.470	  0.247	  0.399	  0.031	 -0.036	 -9.754	 -0.002	  0.001	 -0.000	 33.100	 99.127	 -0.832
26567	  0.469	  0.251	  0.398	  0.032	 -0.004	 -9.780	 -0.003	  0.003	  0.001	 33.000	 99.123	 -0.469
26617	  0.470	  0.252	  0.397	  0.056	 -0.020	 -9.768	 -0.004	  0.003	 -0.000	 33.000	 99.112	  0.530
26667	  0.468	  0.253	  0.392	  0.068	 -0.004	 -9.777	 -0.003	  0.004	  0.000	 33.000	 99.123	 -0.469
26717	  0.470	  0.249	  0.396	  0.054	 -0.019	 -9.775	 -0.003	  0.002	  0.002	 33.000	 99.101	  1.529
26767	  0.468	  0.249	  0.397	  0.041	 -0.009	 -9.736	 -0.004	  0.002	 -0.000	 33.100	 99.127	 -0.832
26817	  0.468	  0.244	  0.397	  0.060	 -0.019	 -9.787	 -0.002	  0.003	  0.000	 33.000	 99.112	  0.530
26867	  0.468	  0.249	  0.399	  0.058	 -0.034	 -9.788	 -0.003	  0.000	  0.001	 33.000	 99.112	  0.530
26917	  0.470	  0.248	  0.391	  0.053	 -0.020	 -9.740	 -0.002	  0.003	  0.000	 33.000	 99.123	 -0.469
26967	  0.470	  0.248	  0.399	  0.035	 -0.007	 -9.772	 -0.003	  0.004	 -0.000	 33.100	 99.127	 -0.832
27017	  0.470	  0.246	  0.394	  0.058	 -0.008	 -9.726	 -0.003	  0.001	  0.001	 33.000	 99.123	 -0.469
27067	  0.470	  0.246	  0.396	  0.073	 -0.024	 -9.745	 -0.004	  0.003	 -0.000	 33.100	 99.127	 -0.832
27117	  0.471	  0.254	  0.395	  0.053	 -0.024	 -9.775	 -0.003	  0.004	 -0.000	 33.000	 99.123	 -0.469
27167	  0.468	  0.249	  0.399	  0.052	 -0.003	 -9.775	 -0.004	  0.002	 -0.000	 33.100	 99.116	  0.167
27217	  0.470	  0.246	  0.395	  0.048	 -0.001	 -9.714	 -0.002	  0.003	  0.000	 33.100	 99.123	 -0.469
27267	  0.468	  0.248	  0.399	  0.067	 -0.016	 -9.769	 -0.004	  0.002	  0.000	 33.100	 99.127	 -0.832
27317	  0.468	  0.246	  0.397	  0.057	 -0.014	 -9.777	 -0.003	  0.001	  0.001	 33.100	 99.112	  0.530
27367	  0.466	  0.247	  0.399	  0.053	 -0.007	 -9.769	 -0.003	  0.002	  0.001	 33.100	 99.127	 -0.832
27417	  0.467	  0.246	  0.395	  0.067	 -0.017	 -9.760	 -0.002	  0.002	  0.001	 33.000	 99.112	  0.530
27467	  0.470	  0.251	  0.395	  0.104	  0.003	 -9.731	 -0.003	  0.004	 -0.000	 33.000	 99.112	  0.530
27517	  0.467	  0.248	  0.397	  0.060	 -0.027	 -9.764	 -0.004	  0.002	 -0.000	 33.100	 99.112	  0.530
27567	  0.466	  0.248	  0.396	  0.066	 -0.036	 -9.769	 -0.004	  0.003	  0.000	 33.100	 99.127	 -0.832
27617	  0.466	  0.246	  0.396	  0.074	 -0.015	 -9.766	 -0.004	  0.004	  0.000	 33.000	 99.112	  0.530
27667	  0.470	  0.249	  0.397	  0.052	 -0.022	 -9.766	 -0.003	  0.002	 -0.001	 33.000	 99.112	  0.530
27717	  0.469	  0.250	  0.396	  0.074	 -0.034	 -9.747	 -0.003	  0.003	  0.001	 33.000	 99.112	  0.530
27767	  0.468	  0.248	  0.396	  0.045	 -0.012	 -9.757	 -0.004	  0.002	  0.001	 33.100	 99.116	  0.167
27817	  0.468	  0.245	  0.395	  0.060	 -0.003	 -9.747	 -0.005	  0.003	  0.000	 33.000	 99.112	  0.530
27867	  0.470	  0.248	  0.397	  0.044	 -0.028	 -9.756	 -0.005	  0.003	 -0.000	 33.000	 99.123	 -0.469
27917	  0.469	  0.250	  0.399	  0.060	 -0.028	 -9.764	 -0.004	  0.001	  0.000	 33.100	 99.123	 -0.469
27967	  0.468	  0.246	  0.395	  0.075	 -0.008	 -9.762	 -0.002	  0.002	  0.001	 33.000	 99.123	 -0.469
28017	  0.470	  0.246	  0.396	  0.071	 -0.016	 -9.776	 -0.004	  0.002	 -0.001	 33.100	 99.123	 -0.469
28067	  0.468	  0.249	  0.400	  0.064	 -0.009	 -9.770	 -0.003	  0.003	 -0.001	 33.000	 99.123	 -0.469
28117	  0.466	  0.247	  0.398	  0.060	  0.004	 -9.778	 -0.003	  0.003	 -0.001	 33.100	 99.123	 -0.469
28167	  0.468	  0.245	  0.398	  0.068	 -0.001	 -9.762	 -0.003	  0.000	  0.002	 33.000	 99.112	  0.530
28217	  0.468	  0.250	  0.395	  0.073	 -0.008	 -9.750	 -0.002	  0.003	  0.001	 33.100	 99.116	  0.167
28267	  0.470	  0.248	  0.396	  0.062	  0.005	 -9.747	 -0.004	  0.002	 -0.000	 33.000	 99.112	  0.530
28317	  0.468	  0.246	  0.399	  0.077	 -0.034	 -9.728	 -0.003	  0.001	  0.000	 33.000	 99.123	 -0.469
28367	  0.470	  0.245	  0.398	  0.052	 -0.025	 -9.774	 -0.004	  0.001	 -0.000	 33.100	 99.116	  0.167
28417	  0.468	  0.248	  0.397	  0.056	 -0.019	 -9.764	 -0.003	  0.004	  0.001	 33.000	 99.112	  0.530
28467	  0.470	  0.248	  0.398	  0.041	  0.008	 -9.752	 -0.004	  0.004	 -0.000	 33.000	 99.123	 -0.469
28517	  0.467	  0.250	  0.398	  0.069	 -0.013	 -9.710	 -0.003	  0.003	  0.001	 33.100	 99.116	  0.167
28568	  0.468	  0.251	  0.399	  0.053	 -0.010	 -9.793	 -0.004	  0.004	  0.000	 33.000	 99.123	 -0.469
28617	  0.467	  0.245	  0.399	  0.068	 -0.023	 -9.752	 -0.004	  0.002	  0.001	 33.100	 99.127	 -0.832
28666	  0.467	  0.246	  0.396	  0.062	 -0.025	 -9.779	 -0.004	  0.002	  0.000	 33.000	 99.112	  0.530
28716	  0.470	  0.254	  0.397	  0.060	  0.003	 -9.743	 -0.005	  0.001	 -0.000	 33.000	 99.123	 -0.469
28766	  0.468	  0.247	  0.392	  0.049	 -0.006	 -9.776	 -0.003	  0.002	  0.001	 33.000	 99.112	  0.530
28816	  0.467	  0.246	  0.396	  0.050	  0.005	 -9.742	 -0.003	  0.002	  0.002	 33.000	 99.123	 -0.469
28866	  0.470	  0.249	  0.398	  0.065	 -0.024	 -9.783	 -0.003	  0.002	  0.000	 33.000	 99.112	  0.530
28916	  0.470	  0.245	  0.398	  0.067	  0.012	 -9.777	 -0.004	  0.003	  0.000	 33.000	 99.123	 -0.469
28966	  0.466	  0.249	  0.394	  0.061	  0.021	 -9.763	 -0.004	  0.001	 -0.000	 33.000	 99.101	  1.529
29016	  0.470	  0.250	  0.398	  0.042	 -0.007	 -9.754	 -0.004	  0.003	 -0.001	 33.100	 99.127	 -0.832
29066	  0.468	  0.247	  0.398	  0.032	 -0.015	 -9.754	 -0.005	  0.002	  0.001	 33.100	 99.127	 -0.832
29116	  0.467	  0.244	  0.397	  0.050	 -0.014	 -9.782	 -0.003	  0.004	  0.000	 33.100	 99.116	  0.167
29166	  0.468	  0.246	  0.400	  0.061	 -0.007	 -9.779	 -0.003	  0.002	  0.002	 33.000	 99.123	 -0.469
29217	  0.468	  0.251	  0.397	  0.043	 -0.016	 -9.764	 -0.004	  0.004	  0.000	 33.100	 99.127	 -0.832
29267	  0.468	  0.247	  0.398	  0.046	  0.002	 -9.733	 -0.003	  0.001	 -0.000	 33.000	 99.123	 -0.469
29317	  0.468	  0.250	  0.398	  0.061	 -0.019	 -9.747	 -0.003	  0.003	  0.001	 33.100	 99.116	  0.167
29367	  0.468	  0.248	  0.398	  0.068	 -0.024	 -9.750	 -0.003	  0.002	 -0.001	 33.100	 99.116	  0.167
29417	  0.468	  0.246	  0.398	  0.062	 -0.020	 -9.795	 -0.003	  0.004	  0.002	 33.000	 99.112	  0.530
29467	  0.468	  0.244	  0.399	  0.040	 -0.028	 -9.746	 -0.004	  0.003	  0.000	 33.100	 99.116	  0.167
29517	  0.467	  0.244	  0.397	  0.085	 -0.006	 -9.768	 -0.003	  0.003	  0.000	 33.000	 99.112	  0.530
29567	  0.467	  0.251	  0.401	  0.043	 -0.004	 -9.747	 -0.002	  0.001	 -0.001	 33.000	 99.123	 -0.469
29617	  0.468	  0.248	  0.397	  0.066	 -0.021	 -9.764	 -0.003	  0.004	  0.001	 33.000	 99.112	  0.530
29667	  0.468	  0.253	  0.395	  0.063	 -0.030	 -9.756	 -0.004	  0.003	  0.000	 33.100	 99.127	 -0.832
29717	  0.467	  0.246	  0.396	  0.064	 -0.027	 -9.743	 -0.004	  0.002	  0.001	 33.100	 99.105	  1.165
29767	  0.469	  0.251	  0.397	  0.071	 -0.002	 -9.783	 -0.004	  0.002	  0.000	 33.000	 99.112	  0.530
29817	  0.467	  0.247	  0.399	  0.062	  0.006	 -9.748	 -0.004	  0.002	  0.001	 33.000	 99.123	 -0.469
29867	  0.468	  0.248	  0.395	  0.048	 -0.017	 -9.790	 -0.004	  0.002	  0.001	 33.100	 99.127	 -0.832
29917	  0.468	  0.246	  0.394	  0.053	 -0.028	 -9.784	 -0.003	  0.004	  0.000	 33.100	 99.123	 -0.469
29967	  0.468	  0.248	  0.398	  0.056	 -0.029	 -9.771	 -0.002	  0.001	  0.000	 33.000	 99.112	  0.530
30017	  0.468	  0.248	  0.400	  0.069	 -0.011	 -9.748	 -0.003	  0.002	  0.002	 33.100	 99.116	  0.167
30067	  0.467	  0.246	  0.394	  0.091	  0.022	 -9.792	 -0.003	  0.002	  0.000	 33.000	 99.123	 -0.469
30117	  0.468	  0.249	  0.397	  0.055	 -0.005	 -9.753	 -0.003	  0.004	  0.001	 33.100	 99.127	 -0.832
30167	  0.465	  0.243	  0.398	  0.052	 -0.011	 -9.750	 -0.004	  0.004	  0.002	 33.000	 99.123	 -0.469
30217	  0.468	  0.252	  0.396	  0.056	 -0.024	 -9.806	 -0.004	  0.001	  0.001	 33.000	 99.123	 -0.469
30267	  0.468	  0.248	  0.395	  0.061	 -0.018	 -9.780	 -0.003	  0.004	  0.002	 33.000	 99.112	  0.530
30317	  0.470	  0.247	  0.397	  0.073	 -0.009	 -9.765	 -0.003	  0.003	  0.001	 33.000	 99.123	 -0.469
30367	  0.467	  0.246	  0.397	  0.061	 -0.005	 -9.757	 -0.003	  0.003	  0.001	 33.000	 99.123	 -0.469
30417	  0.468	  0.249	  0.397	  0.070	  0.004	 -9.757	 -0.003	  0.001	  0.001	 33.000	 99.123	 -0.469
30467	  0.467	  0.245	  0.398	  0.049	 -0.000	 -9.767	 -0.002	  0.001	  0.000	 33.000	 99.112	  0.530
30517	  0.468	  0.247	  0.397	  0.066	 -0.009	 -9.767	 -0.004	  0.003	  0.001	 33.100	 99.127	 -0.832
30567	  0.468	  0.248	  0.395	  0.051	 -0.038	 -9.758	 -0.004	  0.003	 -0.000	 33.100	 99.127	 -0.832
30617	  0.468	  0.247	  0.398	  0.050	 -0.019	 -9.748	 -0.004	  0.002	  0.000	 33.000	 99.123	 -0.469
30667	  0.468	  0.247	  0.398	  0.065	 -0.028	 -9.751	 -0.004	  0.003	 -0.000	 33.000	 99.123	 -0.469
30717	  0.468	  0.249	  0.398	  0.071	 -0.008	 -9.722	 -0.004	  0.003	 -0.001	 33.000	 99.123	 -0.469
30767	  0.468	  0.248	  0.396	  0.077	 -0.010	 -9.764	 -0.003	  0.003	  0.001	 33.000	 99.135	 -1.559
30817	  0.467	  0.246	  0.396	  0.043	 -0.014	 -9.748	 -0.004	  0.002	  0.001	 33.000	 99.101	  1.529
30867	  0.468	  0.248	  0.400	  0.076	  0.017	 -9.740	 -0.004	  0.001	  0.000	 33.100	 99.116	  0.167
30917	  0.466	  0.246	  0.399	  0.056	 -0.012	 -9.778	 -0.004	  0.001	 -0.000	 33.000	 99.112	  0.530
30967	  0.470	  0.246	  0.396	  0.036	  0.013	 -9.776	 -0.004	  0.003	  0.000	 33.000	 99.123	 -0.469
31017	  0.468	  0.249	  0.399	  0.077	 -0.019	 -9.742	 -0.003	  0.004	 -0.000	 33.100	 99.116	  0.167
31067	  0.468	  0.248	  0.398	  0.090	 -0.047	 -10.205	 -0.006	  0.005	  0.000	 33.000	 99.135	 -1.559
31117	  0.468	  0.249	  0.397	  0.024	 -0.011	 -9.673	 -0.004	  0.002	  0.001	 33.100	 99.116	  0.167
31167	  0.468	  0.250	  0.399	  0.038	 -0.010	 -9.687	 -0.004	  0.000	  0.000	 33.100	 99.116	  0.167
31217	  0.468	  0.250	  0.401	  0.072	 -0.021	 -9.760	 -0.002	  0.004	  0.000	 33.100	 99.116	  0.167
31267	  0.466	  0.245	  0.396	  0.076	 -0.012	 -9.781	 -0.005	  0.002	  0.001	 33.100	 99.116	  0.167
31317	  0.469	  0.252	  0.396	  0.074	 -0.009	 -9.758	 -0.004	  0.001	  0.000	 33.100	 99.116	  0.167
31367	  0.470	  0.248	  0.397	  0.049	  0.008	 -9.738	 -0.003	  0.002	 -0.000	 33.000	 99.112	  0.530
31417	  0.468	  0.249	  0.396	  0.047	  0.010	 -9.738	 -0.004	  0.003	  0.000	 33.000	 99.123	 -0.469
31467	  0.467	  0.248	  0.395	  0.065	 -0.014	 -9.752	 -0.004	  0.003	 -0.000	 33.000	 99.112	  0.530
31517	  0.468	  0.249	  0.395	  0.057	 -0.023	 -9.757	 -0.003	  0.003	  0.001	 33.100	 99.116	  0.167
31567	  0.467	  0.249	  0.397	  0.068	  0.008	 -9.777	 -0.005	  0.002	  0.000	 33.000	 99.123	 -0.469
31617	  0.468	  0.246	  0.395	  0.071	 -0.005	 -9.758	 -0.003	  0.003	  0.000	 33.100	 99.127	 -0.832
31667	  0.467	  0.247	  0.397	  0.062	 -0.010	 -9.757	 -0.003	  0.003	  0.001	 33.100	 99.127	 -0.832
31717	  0.468	  0.248	  0.397	  0.065	 -0.014	 -9.773	 -0.003	  0.002	  0.001	 33.000	 99.112	  0.530
31767	  0.468	  0.248	  0.399	  0.060	 -0.011	 -9.742	 -0.003	  0.004	  0.001	 33.000	 99.123	 -0.469
31817	  0.467	  0.247	  0.398	  0.073	 -0.015	 -9.761	 -0.003	  0.003	  0.001	 33.000	 99.123	 -0.469
31867	  0.470	  0.252	  0.398	  0.049	 -0.033	 -9.759	 -0.003	  0.004	  0.001	 33.100	 99.127	 -0.832
31917	  0.467	  0.249	  0.395	  0.082	  0.000	 -9.768	 -0.002	  0.003	  0.000	 33.100	 99.112	  0.530
31967	  0.467	  0.246	  0.400	  0.034	 -0.045	 -9.801	 -0.002	 -0.006	 -0.000	 33.100	 99.116	  0.167
32017	  0.466	  0.246	  0.400	  0.109	 -0.007	 -9.727	 -0.001	  0.005	 -0.002	 33.100	 99.127	 -0.832
32067	  0.465	  0.248	  0.397	  0.040	  0.572	 -9.683	 -0.020	 -0.011	 -0.059	 33.100	 99.127	 -0.832
32117	  0.468	  0.251	  0.395	 -0.219	 -1.227	 -9.911	 -0.013	  0.009	  0.045	 33.000	 99.112	  0.530
32167	  0.470	  0.250	  0.399	  0.086	 -0.026	 -9.770	 -0.003	  0.001	  0.007	 33.000	 99.112	  0.530
32217	  0.470	  0.252	  0.398	  0.104	 -0.038	 -9.754	 -0.004	  0.004	  0.008	 33.100	 99.127	 -0.832
32267	  0.472	  0.245	  0.395	 -0.352	  0.457	 -9.730	 -0.017	  0.005	  0.482	 33.000	 99.112	  0.530
32317	  0.478	  0.234	  0.392	  0.276	 -0.595	 -9.859	 -0.025	 -0.002	  0.334	 33.000	 99.123	 -0.469
32367	  0.483	  0.226	  0.391	  0.997	 -0.529	 -9.900	  0.009	  0.029	  0.219	 33.000	 99.112	  0.530
32417	  0.485	  0.224	  0.389	  0.078	 -0.016	 -9.762	 -0.011	 -0.007	 -0.004	 33.100	 99.112	  0.530
32467	  0.485	  0.225	  0.382	 -0.013	  0.062	 -9.749	 -0.006	 -0.007	 -0.015	 33.000	 99.112	  0.530
32517	  0.487	  0.226	  0.382	  0.097	 -0.001	 -9.778	 -0.003	  0.000	 -0.013	 33.000	 99.112	  0.530
32567	  0.487	  0.223	  0.377	  0.052	  0.015	 -9.750	 -0.003	  0.007	  0.015	 33.100	 99.116	  0.167
32617	  0.484	  0.219	  0.376	  0.094	 -0.005	 -9.748	 -0.003	 -0.008	 -0.004	 33.000	 99.123	 -0.469
32667	  0.486	  0.226	  0.380	  0.917	 -0.240	 -9.820	  0.000	 -0.015	 -0.171	 33.000	 99.123	 -0.469
32717	  0.484	  0.238	  0.388	  0.608	  0.001	 -9.742	  0.000	  0.026	 -0.467	 33.000	 99.112	  0.530
32767	  0.479	  0.249	  0.394	 -0.900	  0.091	 -9.839	 -0.004	  0.005	 -0.231	 33.000	 99.123	 -0.469
32817	  0.480	  0.244	  0.394	  0.105	 -0.024	 -9.797	 -0.000	  0.009	 -0.000	 33.100	 99.123	 -0.469
32867	  0.483	  0.245	  0.383	 -0.189	 -0.039	 -9.884	 -0.044	  0.002	  0.038	 33.000	 99.112	  0.530
32917	  0.485	  0.236	  0.385	 -0.237	 -0.119	 -10.510	 -0.359	  0.014	  0.488	 33.100	 99.123	 -0.469
32967	  0.488	  0.213	  0.393	 -0.301	  0.389	 -9.586	 -0.477	  0.033	  0.339	 33.000	 99.112	  0.530
33017	  0.486	  0.197	  0.393	  1.145	  0.171	 -9.364	 -0.093	  0.056	  0.300	 33.100	 99.127	 -0.832
33067	  0.488	  0.195	  0.392	  0.339	  0.475	 -9.078	  0.143	 -0.056	  0.321	 33.000	 99.119	 -0.106
33117	  0.489	  0.190	  0.384	 -1.199	 -0.198	 -9.349	  0.151	  0.163	  0.346	 33.100	 99.116	  0.167
33167	  0.489	  0.171	  0.384	  0.862	  0.319	 -9.357	  0.295	 -0.003	  0.546	 33.000	 99.112	  0.530
33217	  0.491	  0.171	  0.381	  1.217	 -0.704	 -10.657	  0.176	  0.016	  0.234	 33.000	 99.112	  0.530
33267	  0.492	  0.170	  0.377	  0.388	 -0.173	 -9.303	  0.192	 -0.228	 -0.021	 33.000	 99.123	 -0.469
33317	  0.496	  0.176	  0.373	  0.604	 -0.221	 -9.818	  0.023	  0.011	 -0.070	 33.000	 99.112	  0.530
33367	  0.495	  0.185	  0.368	  0.175	  0.118	 -9.695	  0.071	 -0.006	 -0.540	 33.000	 99.123	 -0.469
33417	  0.495	  0.198	  0.374	 -0.034	 -0.249	 -9.810	 -0.023	  0.026	 -0.011	 33.100	 99.116	  0.167
33466	  0.494	  0.194	  0.369	 -0.066	 -0.058	 -9.947	 -0.028	  0.003	  0.081	 33.000	 99.112	  0.530
33516	  0.490	  0.186	  0.378	  0.532	 -0.200	 -9.902	 -0.364	  0.377	  0.245	 33.000	 99.112	  0.530
33566	  0.488	  0.177	  0.379	  0.199	  0.242	 -9.724	  0.046	 -0.046	  0.016	 33.100	 99.112	  0.530
33616	  0.483	  0.175	  0.385	 -0.094	  0.239	 -10.450	 -0.289	  0.277	  0.132	 33.000	 99.101	  1.529
33666	  0.478	  0.164	  0.387	  0.698	  0.177	 -9.620	 -0.325	  0.098	  0.073	 33.000	 99.112	  0.530
33716	  0.475	  0.153	  0.395	  0.980	  0.548	 -8.418	 -0.042	  0.088	 -0.026	 33.100	 99.127	 -0.832
33766	  0.475	  0.162	  0.387	 -0.333	  0.438	 -10.854	  0.370	 -0.260	 -0.095	 33.000	 99.112	  0.530
33817	  0.477	  0.162	  0.385	  1.065	  0.034	 -9.238	 -0.140	  0.166	  0.040	 33.100	 99.116	  0.167
33866	  0.486	  0.186	  0.361	  1.075	 -3.222	 -10.844	  0.016	 -0.046	 -0.731	 33.000	 99.112	  0.530
33916	  0.466	  0.205	  0.361	 -2.313	  0.150	 -9.586	  0.006	 -0.009	 -0.455	 33.100	 99.116	  0.167
33966	  0.453	  0.207	  0.360	  0.123	  0.027	 -9.666	 -0.001	 -0.006	  0.001	 33.100	 99.116	  0.167
34016	  0.447	  0.209	  0.357	 -0.323	 -0.029	 -10.009	 -0.004	  0.024	 -0.258	 33.100	 99.127	 -0.832
34066	  0.439	  0.206	  0.361	  0.004	  0.004	 -9.762	 -0.007	  0.003	 -0.004	 33.100	 99.123	 -0.469
34116	  0.435	  0.206	  0.360	  0.152	 -0.060	 -9.763	 -0.005	  0.000	 -0.009	 33.100	 99.123	 -0.469
34166	  0.436	  0.211	  0.361	  0.212	  0.245	 -9.797	 -0.004	 -0.004	 -0.264	 33.100	 99.112	  0.530
34216	  0.438	  0.214	  0.363	  0.089	 -0.043	 -9.770	  0.002	  0.004	 -0.166	 33.000	 99.123	 -0.469
34267	  0.440	  0.215	  0.366	  0.065	 -0.011	 -9.768	 -0.002	  0.003	  0.001	 33.100	 99.127	 -0.832
34316	  0.439	  0.214	  0.361	  0.081	 -0.017	 -9.774	 -0.003	  0.003	  0.000	 33.100	 99.116	  0.167
34367	  0.445	  0.213	  0.356	 -0.101	  0.290	 -9.690	  0.001	  0.006	  0.176	 33.100	 99.116	  0.167
34416	  0.454	  0.211	  0.352	 -0.017	  0.001	 -9.817	 -0.005	  0.004	  0.001	 33.000	 99.112	  0.530
34466	  0.463	  0.214	  0.358	  0.089	 -0.018	 -9.725	 -0.003	 -0.001	  0.000	 33.100	 99.112	  0.530
34516	  0.467	  0.213	  0.363	  0.067	 -0.011	 -9.771	 -0.005	  0.002	  0.001	 33.000	 99.123	 -0.469
34566	  0.473	  0.207	  0.361	  0.047	 -0.001	 -9.779	 -0.003	  0.003	 -0.000	 33.100	 99.112	  0.530
34616	  0.474	  0.207	  0.360	  0.071	 -0.022	 -9.767	 -0.003	  0.002	  0.001	 33.100	 99.123	 -0.469
34666	  0.480	  0.201	  0.351	  0.070	 -0.028	 -9.740	 -0.003	  0.002	  0.001	 33.000	 99.123	 -0.469
34717	  0.482	  0.197	  0.348	  0.056	 -0.005	 -9.793	 -0.004	  0.003	  0.000	 33.100	 99.127	 -0.832
34767	  0.483	  0.194	  0.349	  0.067	 -0.024	 -9.750	 -0.003	  0.002	  0.001	 33.000	 99.123	 -0.469
34817	  0.483	  0.198	  0.352	  0.057	  0.000	 -9.745	 -0.002	  0.004	  0.001	 33.100	 99.127	 -0.832
34867	  0.485	  0.199	  0.347	  0.036	 -0.013	 -9.782	 -0.005	  0.003	  0.001	 33.000	 99.123	 -0.469
34917	  0.484	  0.196	  0.346	  0.073	 -0.008	 -9.741	 -0.003	  0.003	  0.001	 33.100	 99.139	 -1.921
34967	  0.487	  0.195	  0.347	  0.068	 -0.029	 -9.760	 -0.004	  0.004	  0.001	 33.000	 99.123	 -0.469
35017	  0.488	  0.200	  0.346	  0.070	 -0.009	 -9.724	 -0.003	  0.004	  0.000	 33.100	 99.116	  0.167
35067	  0.486	  0.199	  0.347	  0.061	 -0.015	 -9.750	 -0.003	  0.003	  0.001	 33.000	 99.123	 -0.469
35117	  0.484	  0.198	  0.347	  0.052	  0.005	 -9.770	 -0.004	  0.003	  0.001	 33.100	 99.127	 -0.832
35167	  0.484	  0.199	  0.345	  0.083	 -0.016	 -9.726	 -0.003	 -0.000	  0.000	 33.100	 99.116	  0.167
35217	  0.486	  0.200	  0.346	  0.058	  0.003	 -9.753	 -0.004	  0.004	 -0.000	 33.100	 99.123	 -0.469
35267	  0.486	  0.198	  0.341	  0.078	  0.005	 -9.791	 -0.003	  0.003	  0.000	 33.000	 99.123	 -0.469
35317	  0.484	  0.196	  0.345	  0.066	 -0.020	 -9.769	 -0.003	  0.004	  0.001	 33.100	 99.112	  0.530
35367	  0.486	  0.200	  0.347	  0.071	 -0.008	 -9.743	 -0.003	  0.003	  0.001	 33.000	 99.112	  0.530
35417	  0.488	  0.195	  0.340	  0.085	 -0.044	 -9.758	 -0.005	  0.001	  0.001	 33.000	 99.123	 -0.469
35467	  0.496	  0.196	  0.331	  0.061	 -0.005	 -9.770	 -0.003	  0.000	  0.000	 33.000	 99.123	 -0.469
35517	  0.493	  0.190	  0.329	  0.058	 -0.003	 -9.784	 -0.003	  0.004	 -0.000	 33.100	 99.116	  0.167
35567	  0.495	  0.188	  0.335	  0.081	 -0.007	 -9.766	 -0.003	  0.004	 -0.001	 33.100	 99.127	 -0.832
35617	  0.493	  0.192	  0.331	  0.083	 -0.018	 -9.737	 -0.003	  0.004	  0.000	 33.000	 99.123	 -0.469
35667	  0.494	  0.188	  0.334	  0.057	  0.003	 -9.749	 -0.003	  0.003	  0.000	 33.000	 99.123	 -0.469
35717	  0.499	  0.194	  0.323	  0.046	 -0.004	 -9.754	 -0.003	  0.002	 -0.001	 33.100	 99.127	 -0.832
35767	  0.493	  0.186	  0.332	  0.095	 -0.017	 -9.759	 -0.003	  0.004	  0.000	 33.100	 99.116	  0.167
35817	  0.492	  0.192	  0.335	  0.057	 -0.042	 -9.779	 -0.002	  0.000	  0.000	 33.000	 99.123	 -0.469
35867	  0.490	  0.195	  0.334	  0.078	 -0.008	 -9.754	 -0.003	  0.004	  0.001	 33.000	 99.112	  0.530
35917	  0.489	  0.198	  0.339	  0.054	 -0.034	 -9.773	 -0.003	  0.003	  0.001	 33.000	 99.123	 -0.469
35967	  0.496	  0.187	  0.333	  0.113	 -0.060	 -9.779	 -0.004	  0.010	  0.001	 33.000	 99.112	  0.530
36017	  0.497	  0.190	  0.325	  0.059	 -0.025	 -9.779	 -0.004	  0.002	 -0.001	 33.100	 99.112	  0.530
36067	  0.505	  0.193	  0.313	  0.033	 -0.002	 -9.725	 -0.003	  0.004	  0.001	 33.000	 99.112	  0.530
36117	  0.513	  0.184	  0.300	  0.074	 -0.017	 -9.774	 -0.003	  0.002	  0.000	 33.100	 99.105	  1.165
36167	  0.517	  0.176	  0.293	  0.060	  0.001	 -9.762	 -0.003	  0.003	  0.000	 33.000	 99.112	  0.530
36217	  0.517	  0.171	  0.291	  0.067	 -0.001	 -9.720	 -0.004	  0.002	 -0.000	 33.000	 99.123	 -0.469
36267	  0.520	  0.170	  0.290	  0.056	 -0.016	 -9.752	 -0.004	  0.003	  0.001	 33.000	 99.123	 -0.469
36317	  0.529	  0.173	  0.281	  0.061	 -0.025	 -9.785	 -0.004	  0.004	  0.001	 33.000	 99.112	  0.530
36367	  0.532	  0.173	  0.287	  0.073	 -0.001	 -9.736	 -0.002	  0.002	  0.000	 33.000	 99.123	 -0.469
36417	  0.531	  0.179	  0.288	  0.077	 -0.008	 -9.783	 -0.003	  0.003	  0.001	 33.100	 99.116	  0.167
36467	  0.532	  0.176	  0.296	  0.077	 -0.016	 -9.758	 -0.003	  0.002	  0.001	 33.000	 99.112	  0.530
36517	  0.540	  0.185	  0.290	  0.066	 -0.002	 -9.764	 -0.002	  0.003	  0.001	 33.100	 99.116	  0.167
36567	  0.555	  0.188	  0.282	  0.017	  0.012	 -9.753	 -0.001	  0.001	  0.050	 33.100	 99.127	 -0.832
36617	  0.568	  0.234	  0.253	  0.085	 -0.031	 -9.768	 -0.004	  0.001	 -0.001	 33.100	 99.127	 -0.832
36667	  0.559	  0.225	  0.253	  0.086	 -0.001	 -9.751	 -0.004	  0.003	  0.002	 33.000	 99.123	 -0.469
36717	  0.536	  0.230	  0.249	  0.082	 -0.015	 -9.784	 -0.005	  0.003	  0.001	 33.100	 99.116	  0.167
36767	  0.518	  0.248	  0.267	  0.066	 -0.011	 -9.773	 -0.004	  0.004	  0.000	 33.100	 99.105	  1.165
36817	  0.513	  0.254	  0.286	  0.042	 -0.013	 -9.762	 -0.003	  0.003	  0.000	 33.100	 99.116	  0.167
36867	  0.512	  0.267	  0.318	  0.064	 -0.009	 -9.791	 -0.004	  0.002	  0.001	 33.000	 99.101	  1.529
36917	  0.502	  0.270	  0.346	 -0.015	  0.008	 -9.788	 -0.005	  0.005	  0.001	 33.000	 99.123	 -0.469
36967	  0.488	  0.247	  0.381	  0.087	 -0.002	 -9.777	 -0.005	 -0.008	 -0.001	 33.100	 99.116	  0.167
37017	  0.478	  0.239	  0.394	  0.256	  0.009	 -9.666	 -0.003	  0.003	 -0.000	 33.000	 99.123	 -0.469
37067	  0.475	  0.241	  0.394	 -0.021	  0.006	 -9.771	 -0.003	  0.012	  0.003	 33.000	 99.112	  0.530
37117	  0.480	  0.248	  0.400	  0.045	 -0.008	 -9.796	 -0.004	 -0.004	 -0.002	 33.100	 99.123	 -0.469
37167	  0.474	  0.246	  0.410	  0.073	 -0.009	 -9.760	 -0.003	  0.002	  0.000	 33.100	 99.127	 -0.832
37217	  0.462	  0.248	  0.413	  0.052	  0.004	 -9.776	 -0.004	  0.002	  0.001	 33.100	 99.127	 -0.832
37267	  0.439	  0.256	  0.432	  0.035	  0.005	 -9.755	 -0.003	  0.002	 -0.000	 33.000	 99.112	  0.530
37317	  0.430	  0.250	  0.426	  0.074	 -0.018	 -9.764	 -0.004	  0.004	  0.000	 33.100	 99.116	  0.167
37367	  0.422	  0.245	  0.417	  0.061	 -0.032	 -9.743	 -0.003	  0.002	  0.000	 33.000	 99.112	  0.530
37417	  0.423	  0.239	  0.412	  0.049	 -0.018	 -9.756	 -0.004	  0.001	  0.001	 33.000	 99.123	 -0.469
37467	  0.426	  0.244	  0.413	  0.099	 -0.018	 -9.759	 -0.002	  0.003	  0.001	 33.100	 99.127	 -0.832
37517	  0.421	  0.239	  0.399	  0.041	 -0.032	 -9.784	 -0.003	  0.001	  0.002	 33.100	 99.127	 -0.832
37567	  0.421	  0.236	  0.406	  0.077	  0.008	 -9.757	 -0.004	  0.004	  0.001	 33.000	 99.123	 -0.469
37617	  0.423	  0.235	  0.404	  0.089	 -0.018	 -9.682	 -0.003	 -0.001	 -0.001	 33.000	 99.112	  0.530
37667	  0.424	  0.239	  0.404	  0.019	 -0.011	 -9.751	 -0.003	  0.003	  0.000	 33.000	 99.112	  0.530
37717	  0.421	  0.234	  0.404	  0.084	 -0.038	 -9.793	 -0.003	  0.000	  0.000	 33.100	 99.116	  0.167
37767	  0.423	  0.238	  0.399	  0.067	 -0.004	 -9.766	 -0.003	  0.003	  0.000	 33.100	 99.116	  0.167
37817	  0.421	  0.235	  0.402	  0.059	 -0.057	 -9.821	 -0.007	  0.003	  0.001	 33.100	 99.116	  0.167
37867	  0.422	  0.230	  0.399	  0.054	 -0.003	 -9.766	 -0.003	  0.005	  0.001	 33.000	 99.112	  0.530
37917	  0.422	  0.228	  0.404	  0.089	  0.005	 -9.750	 -0.001	  0.003	  0.001	 33.000	 99.112	  0.530
37967	  0.421	  0.236	  0.397	  0.042	  0.002	 -9.743	 -0.002	  0.004	  0.005	 33.100	 99.116	  0.167
38017	  0.419	  0.224	  0.399	 -0.042	  0.034	 -9.780	 -0.003	  0.002	  0.025	 33.100	 99.116	  0.167
38067	  0.419	  0.233	  0.397	  0.299	 -0.314	 -9.747	 -0.015	 -0.001	  0.084	 33.100	 99.112	  0.530
38117	  0.419	  0.236	  0.391	  0.101	 -0.014	 -9.736	 -0.009	  0.009	  0.001	 33.100	 99.112	  0.530
38167	  0.422	  0.230	  0.390	 -0.562	  0.682	 -9.781	 -0.007	  0.009	  0.216	 33.100	 99.116	  0.167
38217	  0.427	  0.222	  0.389	  0.201	 -0.326	 -9.820	 -0.011	  0.003	  0.396	 33.100	 99.116	  0.167
38267	  0.439	  0.206	  0.383	  0.244	 -0.130	 -9.725	 -0.010	 -0.004	 -0.004	 33.000	 99.123	 -0.469
38317	  0.451	  0.204	  0.389	  0.067	 -0.007	 -9.795	 -0.004	  0.004	  0.001	 33.100	 99.127	 -0.832
38367	  0.458	  0.207	  0.387	  0.048	 -0.016	 -9.771	 -0.003	  0.002	 -0.000	 33.100	 99.116	  0.167
38417	  0.465	  0.208	  0.388	  0.057	  0.004	 -9.762	 -0.004	  0.003	 -0.000	 33.000	 99.101	  1.529
38467	  0.470	  0.208	  0.384	  0.053	 -0.016	 -9.746	 -0.004	  0.005	  0.003	 33.100	 99.116	  0.167
38517	  0.475	  0.210	  0.387	  0.081	 -0.004	 -9.747	 -0.003	  0.002	  0.001	 33.100	 99.127	 -0.832
38567	  0.477	  0.213	  0.380	  0.048	  0.001	 -9.758	 -0.002	  0.005	  0.001	 33.000	 99.112	  0.530
38617	  0.482	  0.212	  0.390	  0.044	 -0.012	 -9.760	 -0.003	  0.002	  0.001	 33.100	 99.127	 -0.832
38667	  0.480	  0.221	  0.385	  0.057	 -0.004	 -9.771	 -0.003	  0.001	 -0.000	 33.100	 99.116	  0.167
38717	  0.480	  0.224	  0.383	  0.055	 -0.026	 -9.743	 -0.005	 -0.001	 -0.001	 33.100	 99.127	 -0.832
38767	  0.482	  0.223	  0.383	  0.129	  0.024	 -9.724	  0.000	  0.012	 -0.001	 33.000	 99.112	  0.530
38817	  0.479	  0.225	  0.387	  0.082	 -0.038	 -9.751	 -0.005	 -0.005	  0.001	 33.100	 99.116	  0.167
38867	  0.480	  0.225	  0.391	  0.276	  0.007	 -9.644	 -0.004	  0.004	  0.001	 33.100	 99.116	  0.167
38917	  0.481	  0.228	  0.391	  0.033	  0.009	 -9.707	 -0.003	  0.005	  0.001	 33.100	 99.116	  0.167
38967	  0.477	  0.227	  0.395	 -0.080	 -0.027	 -9.845	 -0.006	  0.016	  0.003	 33.100	 99.116	  0.167
39017	  0.468	  0.228	  0.402	  0.025	 -0.024	 -9.781	 -0.004	 -0.000	 -0.000	 33.000	 99.112	  0.530
39067	  0.466	  0.220	  0.404	  0.063	  0.014	 -9.779	 -0.005	  0.002	 -0.001	 33.000	 99.112	  0.530
39117	  0.451	  0.200	  0.398	  0.071	 -0.021	 -9.731	 -0.003	  0.001	  0.000	 33.100	 99.116	  0.167
39167	  0.474	  0.211	  0.392	  0.055	 -0.013	 -9.766	 -0.003	  0.006	 -0.001	 33.100	 99.116	  0.167
39217	  0.479	  0.218	  0.394	  0.038	 -0.025	 -9.761	 -0.003	  0.005	  0.001	 33.100	 99.116	  0.167
39267	  0.477	  0.219	  0.396	  0.066	  0.025	 -9.782	 -0.003	  0.001	  0.001	 33.000	 99.123	 -0.469
39317	  0.479	  0.219	  0.398	  0.067	 -0.025	 -9.792	 -0.005	  0.002	  0.001	 33.100	 99.112	  0.530
39367	  0.477	  0.222	  0.394	  0.053	  0.002	 -9.789	 -0.003	  0.001	 -0.001	 33.000	 99.123	 -0.469
39417	  0.476	  0.221	  0.395	  0.065	 -0.011	 -9.777	 -0.003	  0.002	  0.001	 33.100	 99.112	  0.530
39467	  0.475	  0.219	  0.394	  0.062	 -0.010	 -9.758	 -0.003	  0.000	  0.000	 33.100	 99.116	  0.167
39517	  0.476	  0.219	  0.399	  0.088	 -0.000	 -9.755	 -0.003	  0.003	 -0.000	 33.000	 99.123	 -0.469
39567	  0.478	  0.222	  0.397	  0.062	 -0.015	 -9.732	 -0.002	  0.005	 -0.000	 33.100	 99.116	  0.167
39618	  0.477	  0.221	  0.392	  0.084	 -0.015	 -9.775	 -0.004	  0.002	 -0.000	 33.100	 99.112	  0.530
39667	  0.474	  0.220	  0.396	  0.061	 -0.019	 -9.758	 -0.005	  0.001	 -0.000	 33.100	 99.105	  1.165
39717	  0.475	  0.219	  0.396	  0.056	 -0.007	 -9.802	 -0.003	  0.004	  0.001	 33.100	 99.116	  0.167
39767	  0.478	  0.220	  0.396	  0.057	 -0.001	 -9.759	 -0.004	  0.004	  0.001	 33.100	 99.112	  0.530
39817	  0.477	  0.221	  0.396	  0.064	 -0.015	 -9.758	 -0.001	  0.004	  0.001	 33.100	 99.112	  0.530
39866	  0.476	  0.217	  0.394	  0.058	 -0.018	 -9.748	 -0.004	  0.003	  0.001	 33.100	 99.112	  0.530
39916	  0.477	  0.216	  0.394	  0.027	  0.046	 -9.756	 -0.002	  0.004	  0.001	 33.100	 99.123	 -0.469
39966	  0.477	  0.221	  0.396	  1.108	 -0.348	 -9.631	  0.119	  0.154	 -0.214	 33.100	 99.116	  0.167
40016	  0.476	  0.225	  0.395	  0.019	  0.019	 -9.782	  0.000	  0.008	 -0.029	 33.100	 99.116	  0.167
40067	  0.477	  0.222	  0.398	  0.151	 -0.141	 -9.822	 -0.067	 -0.046	  0.005	 33.100	 99.116	  0.167
40117	  0.477	  0.222	  0.398	 -0.022	  0.083	 -9.776	 -0.003	  0.007	 -0.001	 33.000	 99.112	  0.530
40167	  0.478	  0.222	  0.398	 -0.015	  0.073	 -9.774	  0.014	  0.029	 -0.025	 33.100	 99.112	  0.530
40217	  0.478	  0.223	  0.392	 -0.000	  0.187	 -9.780	 -0.029	 -0.021	 -0.150	 33.100	 99.116	  0.167
40267	  0.477	  0.226	  0.395	  0.050	  0.011	 -9.792	 -0.007	  0.001	 -0.001	 33.100	 99.127	 -0.832
40318	  0.477	  0.230	  0.396	 -0.036	 -0.002	 -9.777	 -0.002	  0.006	 -0.041	 33.100	 99.116	  0.167
40368	  0.476	  0.225	  0.396	  0.342	  0.045	 -9.828	 -0.072	 -0.056	  0.175	 33.100	 99.116	  0.167
40418	  0.478	  0.221	  0.386	  0.624	 -1.418	 -10.512	 -0.010	 -0.419	 -0.020	 33.100	 99.116	  0.167
40468	  0.484	  0.215	  0.395	 -2.545	  1.555	 -9.365	 -0.609	 -0.315	 -0.134	 33.000	 99.123	 -0.469
40518	  0.468	  0.200	  0.412	 -0.044	  1.123	 -10.435	 -0.677	  0.377	  0.145	 33.100	 99.116	  0.167
40568	  0.455	  0.186	  0.429	 -0.148	 -0.846	 -9.755	  0.015	  0.530	  0.247	 33.100	 99.116	  0.167
40618	  0.426	  0.196	  0.436	 -0.797	  1.408	 -8.926	  0.602	  1.265	  0.328	 33.000	 99.123	 -0.469
40668	  0.405	  0.194	  0.447	  1.143	  0.400	 -8.729	  0.636	  0.239	  0.739	 33.100	 99.127	 -0.832
40718	  0.426	  0.207	  0.426	  1.197	  0.352	 -8.060	  1.122	 -1.415	  0.080	 33.100	 99.116	  0.167
40768	  0.469	  0.215	  0.382	  0.401	 -2.391	 -10.814	  0.276	 -1.621	  0.466	 33.100	 99.127	 -0.832
40818	  0.498	  0.203	  0.358	 -0.632	 -0.047	 -11.798	 -0.533	 -0.506	  0.654	 33.100	 99.112	  0.530
40868	  0.490	  0.173	  0.363	  2.289	 -0.696	 -8.596	 -0.513	  0.468	 -0.046	 33.100	 99.116	  0.167
40918	  0.474	  0.174	  0.390	 -0.663	  1.129	 -13.077	 -0.281	  1.213	 -0.432	 33.100	 99.116	  0.167
40968	  0.427	  0.169	  0.430	  1.790	 -0.088	 -13.024	 -0.365	  1.198	  0.200	 33.100	 99.127	 -0.832
41018	  0.423	  0.161	  0.435	 -1.732	 -0.818	  3.264	 -0.347	 -1.584	  0.778	 33.100	 99.123	 -0.469
41068	  0.452	  0.115	  0.417	  2.403	 -1.269	 -12.555	 -0.788	  1.179	  0.228	 33.100	 99.116	  0.167
41117	  0.415	  0.121	  0.445	  5.805	 -0.116	 -18.721	  1.406	  0.155	 -0.072	 33.100	 99.127	 -0.832
41167	  0.436	  0.156	  0.416	 -0.560	  2.382	 -3.487	 -0.475	 -1.729	 -0.375	 33.100	 99.116	  0.167
41217	  0.454	  0.124	  0.411	  0.585	  0.710	 -10.402	 -0.872	 -0.290	  0.089	 33.100	 99.116	  0.167
41267	  0.438	  0.128	  0.426	 -1.106	  0.193	 -13.014	  0.647	 -0.620	 -0.621	 33.000	 99.123	 -0.469
41317	  0.441	  0.157	  0.403	 -1.679	  2.334	  2.762	  0.656	  0.340	 -0.094	 33.100	 99.127	 -0.832
41367	  0.446	  0.149	  0.410	  5.656	 -4.677	 -27.752	 -1.114	  0.732	 -0.109	 33.000	 99.112	  0.530
41417	  0.449	  0.148	  0.407	 -5.365	  2.438	 -5.718	  0.856	 -0.858	  0.100	 33.100	 99.127	 -0.832
41467	  0.452	  0.165	  0.397	  1.716	  0.856	 -2.312	  1.122	  0.790	  0.688	 33.100	 99.116	  0.167
41518	  0.451	  0.165	  0.398	  0.468	 -2.943	 -23.309	 -0.468	 -0.218	 -0.778	 33.100	 99.112	  0.530
41567	  0.446	  0.180	  0.399	 -3.217	  3.292	 -0.723	  1.046	 -0.463	  0.023	 33.100	 99.127	 -0.832
41617	  0.449	  0.194	  0.384	  3.670	 -1.665	 -10.016	 -0.034	  0.743	  0.057	 33.100	 99.127	 -0.832
41667	  0.436	  0.200	  0.401	 -2.168	 -0.752	 -16.920	 -0.205	 -0.151	 -0.917	 33.100	 99.116	  0.167
41717	  0.424	  0.222	  0.401	  4.897	 -1.027	  1.896	  1.056	  0.581	  0.211	 33.100	 99.116	  0.167
41767	  0.443	  0.201	  0.392	  6.415	 -6.524	 -24.653	 -1.970	  0.016	  0.269	 33.100	 99.116	  0.167
41817	  0.444	  0.171	  0.411	 -2.370	  1.795	 -14.565	 -0.691	 -0.893	 -0.453	 33.100	 99.105	  1.165
41867	  0.452	  0.177	  0.391	 -1.776	  2.235	  1.474	  0.058	 -0.362	  0.305	 33.100	 99.127	 -0.832
41917	  0.451	  0.168	  0.395	  3.037	 -1.739	 -14.806	  0.150	  0.904	  0.003	 33.100	 99.112	  0.530
41967	  0.447	  0.179	  0.403	 -3.125	  0.030	 -13.458	  0.244	 -0.188	  0.055	 33.000	 99.112	  0.530
42017	  0.448	  0.182	  0.391	  0.350	  1.123	 -4.137	  0.062	 -0.171	 -0.013	 33.100	 99.116	  0.167
42067	  0.456	  0.169	  0.393	  0.257	 -0.060	 -10.058	 -0.659	 -0.250	  0.161	 33.100	 99.116	  0.167
42117	  0.463	  0.154	  0.392	 -0.539	 -0.210	 -12.144	 -0.437	 -0.011	 -0.121	 33.100	 99.127	 -0.832
42167	  0.464	  0.152	  0.403	 -0.730	  0.406	 -17.601	 -0.434	 -0.189	 -0.174	 33.000	 99.112	  0.530
42217	  0.455	  0.170	  0.393	 -4.725	  1.819	 -2.414	  1.945	 -0.404	  0.123	 33.100	 99.116	  0.167
42267	  0.440	  0.217	  0.387	  2.803	  1.418	  8.299	  1.706	  1.871	  0.182	 33.000	 99.112	  0.530
42317	  0.460	  0.186	  0.391	  3.153	 -15.907	 -40.909	 -2.594	  0.601	 -0.686	 33.100	 99.127	 -0.832
42367	  0.444	  0.186	  0.404	 -8.469	  2.092	 -5.316	  0.402	 -3.146	  0.832	 33.100	 99.116	  0.167
42417	  0.463	  0.183	  0.373	  0.372	  5.515	 -2.890	 -1.368	 -0.251	 -0.738	 33.100	 99.116	  0.167
42467	  0.475	  0.132	  0.395	 -4.685	 -0.281	 -13.392	 -0.197	  1.375	  0.713	 33.000	 99.135	 -1.559
42517	  0.458	  0.186	  0.387	 -7.938	  2.491	 -0.956	  1.477	 -0.527	 -1.282	 33.100	 99.112	  0.530
42567	  0.469	  0.153	  0.389	 10.582	  2.038	 -16.179	 -2.108	  0.515	  0.999	 33.100	 99.116	  0.167
42617	  0.466	  0.176	  0.395	 -4.590	  0.288	 -6.449	  1.186	  0.014	 -0.790	 33.100	 99.116	  0.167
42667	  0.458	  0.194	  0.386	  1.922	  4.971	 -14.703	 -1.888	 -0.739	  0.682	 33.100	 99.116	  0.167
42717	  0.477	  0.161	  0.384	 -6.150	  2.821	 -6.866	  2.235	  0.685	  0.152	 33.000	 99.112	  0.530
42767	  0.452	  0.234	  0.378	 -4.981	 -4.033	 -8.834	 -0.280	 -1.581	 -1.437	 33.100	 99.116	  0.167
42817	  0.461	  0.195	  0.389	  1.238	  9.588	 -8.693	 -0.474	  2.101	  1.424	 33.100	 99.112	  0.530
42867	  0.450	  0.214	  0.392	 -2.950	 -11.950	 -13.980	  0.189	 -2.311	 -1.595	 33.000	 99.123	 -0.469
42917	  0.458	  0.167	  0.398	  7.313	  4.165	 -4.154	 -0.598	  1.830	  2.061	 33.100	 99.127	 -0.832
42967	  0.446	  0.209	  0.403	 -2.917	 -13.938	 -18.330	  0.300	 -2.046	 -2.519	 33.000	 99.112	  0.530
43017	  0.462	  0.180	  0.380	  2.069	  7.681	 -2.041	  1.046	  0.172	  2.774	 33.100	 99.116	  0.167
43067	  0.467	  0.211	  0.379	 -3.614	 -3.619	 -18.766	 -1.756	 -1.220	 -3.036	 33.000	 99.112	  0.530
43117	  0.460	  0.193	  0.388	  0.346	  2.183	  1.764	  2.734	  0.127	  3.083	 33.100	 99.116	  0.167
43167	  0.469	  0.195	  0.382	 -3.590	 -3.630	 -15.913	 -4.287	 -1.103	 -3.148	 33.100	 99.127	 -0.832
43217	  0.452	  0.193	  0.392	  1.460	 -6.800	 -6.906	  6.010	  2.751	  3.998	 33.100	 99.116	  0.167
43267	  0.461	  0.226	  0.373	  2.608	 -12.253	 -25.450	 -5.805	 -2.674	 -3.169	 33.100	 99.127	 -0.832
43317	  0.433	  0.168	  0.418	  0.376	 10.837	 10.221	  2.897	  2.831	  2.497	 33.100	 99.105	  1.165
43367	  0.481	  0.197	  0.361	  0.191	 -8.047	 -12.734	 -4.028	 -2.973	 -1.961	 33.100	 99.116	  0.167
43417	  0.462	  0.183	  0.388	  5.944	  2.948	 -17.235	  4.062	  2.707	  1.449	 33.100	 99.116	  0.167
43467	  0.471	  0.206	  0.364	 -5.449	  0.362	 -7.068	 -4.438	 -3.401	 -1.305	 33.100	 99.116	  0.167
43517	  0.474	  0.167	  0.373	  6.820	  4.213	 -13.177	  5.359	  2.381	  1.917	 33.100	 99.112	  0.530
43567	  0.471	  0.216	  0.370	 -6.072	 -2.051	 -15.702	 -3.845	 -2.039	 -2.530	 33.000	 99.112	  0.530
43617	  0.469	  0.181	  0.383	 -2.028	  4.391	  2.260	  2.412	  0.945	  2.020	 33.100	 99.116	  0.167
43667	  0.468	  0.190	  0.374	  3.871	 -5.454	 -12.037	 -0.694	 -0.613	 -0.043	 33.100	 99.116	  0.167
43717	  0.476	  0.163	  0.374	 -0.638	  1.005	 -4.672	 -1.091	 -0.445	 -0.111	 33.100	 99.112	  0.530
43767	  0.477	  0.166	  0.369	  1.153	 -0.183	 -9.199	  0.268	  0.217	  0.553	 33.100	 99.116	  0.167
43817	  0.482	  0.171	  0.364	 -0.004	 -0.260	 -11.046	  0.036	 -0.094	 -0.232	 33.100	 99.116	  0.167
43867	  0.479	  0.168	  0.370	 -1.194	  0.443	 -9.572	  0.020	  0.260	  0.134	 33.100	 99.105	  1.165
43917	  0.481	  0.169	  0.370	 -0.549	  0.074	 -8.790	  0.299	 -0.045	 -0.017	 33.100	 99.116	  0.167
43967	  0.491	  0.174	  0.359	 -0.369	  0.164	 -9.921	  0.206	 -0.338	 -0.077	 33.000	 99.112	  0.530
44017	  0.496	  0.178	  0.352	  0.388	  0.066	 -11.129	  0.201	  0.218	  0.025	 33.100	 99.116	  0.167
44067	  0.485	  0.177	  0.362	 -1.015	  0.437	 -9.793	  0.231	  0.858	  0.072	 33.100	 99.116	  0.167
44117	  0.475	  0.183	  0.379	 -1.104	  0.218	 -9.975	 -0.122	  0.267	  0.213	 33.100	 99.123	 -0.469
44167	  0.470	  0.177	  0.376	  0.597	 -0.309	 -9.795	  0.016	  0.074	 -0.097	 33.000	 99.135	 -1.559
44217	  0.473	  0.183	  0.381	  0.930	 -0.444	 -10.111	  0.280	  0.275	 -0.021	 33.100	 99.127	 -0.832
44267	  0.465	  0.192	  0.385	 -0.554	 -0.571	 -9.549	  0.520	  0.362	  0.007	 33.100	 99.116	  0.167
44317	  0.461	  0.213	  0.383	 -0.996	 -1.412	 -8.995	  0.633	 -0.233	 -0.397	 33.100	 99.116	  0.167
44367	  0.465	  0.240	  0.364	 -0.032	  3.005	 -10.445	  0.420	 -0.444	 -0.124	 33.100	 99.116	  0.167
44417	  0.485	  0.235	  0.349	 -0.643	 -1.079	 -12.555	  0.071	 -0.630	 -0.236	 33.100	 99.112	  0.530
44467	  0.488	  0.239	  0.345	 -0.588	 -0.654	 -8.906	 -0.256	 -0.147	  0.148	 33.100	 99.116	  0.167
44517	  0.481	  0.226	  0.353	 -0.743	 -0.649	 -9.237	 -0.699	  0.485	 -0.002	 33.100	 99.116	  0.167
44567	  0.473	  0.219	  0.370	 -0.004	 -0.831	 -9.942	 -0.426	  0.298	 -0.279	 33.100	 99.116	  0.167
44617	  0.466	  0.212	  0.372	  0.447	 -0.057	 -9.404	 -0.011	  0.101	  0.138	 33.100	 99.123	 -0.469
44667	  0.469	  0.215	  0.372	 -0.367	 -0.653	 -10.105	  0.217	 -0.058	 -0.203	 33.000	 99.112	  0.530
44717	  0.466	  0.225	  0.371	 -0.142	 -0.278	 -9.741	  0.093	  0.111	 -0.047	 33.100	 99.116	  0.167
44767	  0.463	  0.220	  0.371	  0.011	 -0.576	 -9.937	  0.007	  0.085	  0.034	 33.000	 99.112	  0.530
44817	  0.460	  0.226	  0.376	  0.151	 -0.387	 -9.397	  0.014	  0.066	  0.075	 33.100	 99.116	  0.167
44867	  0.463	  0.223	  0.378	  0.053	 -0.902	 -10.262	 -0.005	  0.059	 -0.010	 33.100	 99.116	  0.167
44917	  0.456	  0.218	  0.381	 -0.030	 -0.252	 -9.667	 -0.168	  0.329	  0.059	 33.100	 99.101	  1.529
44967	  0.447	  0.214	  0.394	  0.706	 -0.653	 -10.144	 -0.383	  0.698	  0.076	 33.100	 99.116	  0.167
45017	  0.429	  0.205	  0.414	  0.901	 -0.601	 -9.486	 -0.248	  0.497	 -0.012	 33.100	 99.116	  0.167
45067	  0.428	  0.212	  0.414	  0.245	  0.757	 -9.329	  0.029	 -0.248	 -0.085	 33.100	 99.127	 -0.832
45117	  0.432	  0.207	  0.408	  0.889	 -0.452	 -10.495	 -0.083	  0.145	  0.095	 33.100	 99.116	  0.167
45167	  0.431	  0.202	  0.417	  0.463	  0.789	 -10.025	 -0.086	  0.032	  0.086	 33.100	 99.116	  0.167
45216	  0.425	  0.200	  0.421	  0.631	 -0.640	 -9.585	 -0.032	  0.260	 -0.126	 33.100	 99.116	  0.167
45266	  0.413	  0.203	  0.431	  1.361	  0.111	 -10.472	 -0.393	  0.598	 -0.040	 33.100	 99.116	  0.167
45316	  0.390	  0.189	  0.453	  1.678	  0.220	 -9.984	 -0.521	  0.804	 -0.175	 33.100	 99.112	  0.530
45366	  0.373	  0.183	  0.471	  1.189	  0.656	 -9.153	 -0.153	  0.309	  0.019	 33.100	 99.127	 -0.832
45417	  0.359	  0.184	  0.474	  1.135	  0.795	 -8.726	 -0.046	  0.583	  0.132	 33.000	 99.112	  0.530
45467	  0.354	  0.180	  0.477	  2.142	  0.027	 -9.953	  0.304	 -0.233	  0.073	 33.100	 99.116	  0.167
45517	  0.359	  0.191	  0.472	  2.378	 -0.051	 -10.442	 -0.036	  0.104	 -0.178	 33.100	 99.112	  0.530
45566	  0.344	  0.189	  0.485	  1.255	  1.039	 -8.603	 -0.223	  0.401	 -0.018	 33.100	 99.116	  0.167
45616	  0.334	  0.184	  0.489	  2.011	  0.774	 -8.927	 -0.025	 -0.054	  0.079	 33.100	 99.127	 -0.832
45666	  0.333	  0.182	  0.490	  1.994	  0.106	 -9.376	  0.087	  0.109	  0.028	 33.100	 99.116	  0.167
45718	  0.340	  0.195	  0.482	  2.688	 -0.323	 -8.026	  0.468	 -0.736	 -0.543	 33.100	 99.116	  0.167
45767	  0.380	  0.230	  0.451	  1.721	 -3.623	 -7.837	  0.305	 -2.476	 -0.286	 33.000	 99.112	  0.530
45816	  0.408	  0.201	  0.446	 -1.643	 -4.563	 -14.144	 -2.703	  0.984	 -0.948	 33.000	 99.112	  0.530
45867	  0.373	  0.190	  0.474	  0.021	  1.101	 -7.726	  0.225	 -0.359	 -0.168	 33.100	 99.116	  0.167
45916	  0.377	  0.186	  0.468	  0.922	  0.850	 -9.542	  0.140	 -0.568	  0.066	 33.100	 99.116	  0.167
45967	  0.378	  0.185	  0.464	  1.690	  0.624	 -9.127	 -0.105	  0.334	  0.335	 33.100	 99.116	  0.167
46016	  0.376	  0.183	  0.466	  1.548	  0.272	 -9.965	  0.020	  0.012	 -0.014	 33.100	 99.116	  0.167
46067	  0.372	  0.186	  0.463	  1.481	  0.647	 -9.310	  0.084	  0.126	 -0.028	 33.100	 99.127	 -0.832
46117	  0.366	  0.186	  0.468	  1.313	  0.649	 -10.073	 -0.031	  0.421	 -0.022	 33.100	 99.116	  0.167
46167	  0.376	  0.192	  0.456	  3.264	 -4.410	 -4.229	  1.994	 -1.410	  1.299	 33.100	 99.116	  0.167
46217	  0.410	  0.212	  0.435	 -0.802	 -2.071	 -12.211	  0.477	 -0.054	 -0.243	 33.100	 99.116	  0.167
46267	  0.395	  0.214	  0.438	  2.230	  0.692	 -10.515	 -0.185	  0.621	  0.218	 33.100	 99.116	  0.167
46317	  0.379	  0.216	  0.445	  0.469	 -2.760	 -7.413	  0.256	  0.162	 -0.013	 33.100	 99.116	  0.167
46367	  0.377	  0.232	  0.453	  1.402	  0.112	 -8.965	  0.612	 -0.001	 -0.142	 33.100	 99.116	  0.167
46417	  0.374	  0.236	  0.440	  1.897	 -0.641	 -10.262	 -0.068	  0.236	  0.084	 33.100	 99.116	  0.167
46467	  0.371	  0.237	  0.450	  1.927	 -0.643	 -9.499	  0.044	  0.001	  0.349	 33.100	 99.132	 -1.286
46517	  0.380	  0.232	  0.444	  1.306	 -0.308	 -9.326	 -0.144	 -0.493	  0.284	 33.100	 99.127	 -0.832
46567	  0.393	  0.220	  0.442	  1.154	 -1.920	 -8.952	 -0.067	 -0.278	  0.290	 33.100	 99.127	 -0.832
46617	  0.401	  0.213	  0.435	  1.247	 -0.891	 -9.079	 -0.526	 -0.399	  0.188	 33.100	 99.127	 -0.832
46667	  0.410	  0.195	  0.442	  0.220	  0.187	 -9.675	 -0.598	 -0.024	  0.382	 33.100	 99.116	  0.167
46717	  0.418	  0.172	  0.441	  1.303	 -0.075	 -10.654	 -0.543	 -0.232	  0.409	 33.100	 99.116	  0.167
46767	  0.426	  0.151	  0.451	  0.940	 -0.054	 -10.175	 -0.123	 -0.260	  0.583	 33.100	 99.105	  1.165
46817	  0.440	  0.141	  0.448	  0.992	  0.180	 -9.711	 -0.243	 -0.419	  0.595	 33.100	 99.116	  0.167
46867	  0.448	  0.126	  0.444	 -0.696	  0.235	 -10.019	 -0.162	 -0.256	  0.176	 33.100	 99.116	  0.167
46917	  0.450	  0.133	  0.442	 -1.260	  0.995	 -9.693	  0.612	 -0.180	 -0.046	 33.100	 99.116	  0.167
46967	  0.448	  0.153	  0.433	 -0.119	 -0.132	 -10.449	  0.772	  0.371	 -0.023	 33.100	 99.116	  0.167
47017	  0.430	  0.178	  0.433	  0.581	 -0.324	 -9.343	  1.128	  0.430	 -0.024	 33.100	 99.116	  0.167
47067	  0.420	  0.206	  0.426	  1.009	 -1.531	 -9.288	  0.967	  0.173	 -0.072	 33.100	 99.116	  0.167
47117	  0.417	  0.224	  0.420	  1.493	 -1.446	 -8.986	  0.392	  0.066	  0.083	 33.100	 99.116	  0.167
47167	  0.417	  0.222	  0.416	  0.314	 -1.587	 -10.200	  0.399	 -0.270	  0.253	 33.100	 99.116	  0.167
47217	  0.426	  0.234	  0.398	  0.861	 -1.861	 -8.823	  0.614	 -0.511	  0.233	 33.100	 99.116	  0.167
47267	  0.441	  0.227	  0.391	 -0.005	 -1.985	 -9.844	 -0.432	 -0.312	  0.240	 33.000	 99.112	  0.530
47317	  0.447	  0.196	  0.398	 -0.913	 -1.882	 -7.882	 -1.874	 -0.419	 -0.010	 33.100	 99.112	  0.530
47367	  0.461	  0.159	  0.404	 -1.032	 -0.688	 -8.215	 -1.520	 -0.846	 -0.353	 33.100	 99.116	  0.167
47417	  0.477	  0.139	  0.400	 -0.897	  1.065	 -9.420	 -1.087	 -0.325	 -0.466	 33.100	 99.105	  1.165
47467	  0.481	  0.125	  0.397	 -0.673	 -0.276	 -9.367	 -0.694	 -0.079	 -0.409	 33.100	 99.116	  0.167
47517	  0.486	  0.118	  0.403	 -0.999	  0.889	 -10.534	 -0.597	  0.395	 -0.383	 33.100	 99.116	  0.167
47567	  0.481	  0.120	  0.405	 -0.266	  1.785	 -9.910	  0.067	  0.188	 -0.254	 33.100	 99.105	  1.165
47617	  0.484	  0.135	  0.402	 -0.567	  0.859	 -10.876	  0.717	 -0.209	  0.049	 33.100	 99.116	  0.167
47667	  0.485	  0.146	  0.394	  0.322	  0.305	 -11.251	  0.351	  0.151	  0.051	 33.000	 99.123	 -0.469
47717	  0.483	  0.148	  0.394	 -0.168	  0.629	 -10.144	  0.306	  0.113	  0.065	 33.100	 99.116	  0.167
47767	  0.479	  0.158	  0.397	  0.197	  0.607	 -10.663	  0.158	 -0.001	  0.145	 33.100	 99.116	  0.167
47817	  0.477	  0.159	  0.402	 -0.031	  0.123	 -9.940	  0.271	 -0.056	  0.210	 33.100	 99.116	  0.167
47867	  0.480	  0.163	  0.400	 -0.703	  0.055	 -9.810	  0.436	 -0.059	  0.378	 33.100	 99.116	  0.167
47917	  0.479	  0.164	  0.401	 -0.663	 -0.320	 -9.361	  0.510	  0.106	  0.226	 33.100	 99.116	  0.167
47967	  0.475	  0.174	  0.404	 -0.697	 -0.149	 -8.613	  0.047	  0.007	  0.025	 33.100	 99.116	  0.167
48017	  0.475	  0.170	  0.411	 -0.103	 -1.347	 -9.071	 -0.189	  0.260	  0.198	 33.100	 99.127	 -0.832
48067	  0.474	  0.153	  0.413	 -0.718	  0.040	 -9.581	 -0.649	  0.078	  0.146	 33.100	 99.116	  0.167
48117	  0.466	  0.135	  0.424	  0.379	 -0.648	 -9.380	 -0.700	  0.515	  0.176	 33.100	 99.127	 -0.832
48167	  0.455	  0.107	  0.438	 -0.610	  1.400	 -9.075	 -0.594	  0.426	  0.312	 33.100	 99.116	  0.167
48217	  0.448	  0.096	  0.443	  0.616	  0.961	 -9.779	 -0.434	  0.316	  0.347	 33.100	 99.116	  0.167
48267	  0.450	  0.067	  0.447	  0.338	  1.339	 -9.291	 -0.182	  0.020	  0.564	 33.100	 99.116	  0.167
48317	  0.461	  0.067	  0.433	  1.107	  0.820	 -9.807	  0.703	 -0.402	  0.488	 33.100	 99.101	  1.529
48367	  0.465	  0.068	  0.436	  1.079	  0.036	 -10.618	 -0.103	  0.581	  0.100	 33.100	 99.116	  0.167
48417	  0.443	  0.057	  0.460	  0.946	  0.485	 -9.130	 -0.444	  1.108	 -0.077	 33.100	 99.116	  0.167
48467	  0.421	  0.048	  0.480	  0.652	  0.508	 -10.110	 -0.642	  0.443	  0.175	 33.100	 99.127	 -0.832
48517	  0.411	  0.023	  0.489	  0.865	  1.056	 -10.419	 -0.710	  0.245	  0.356	 33.100	 99.116	  0.167
48567	  0.401	 -0.003	  0.492	  0.911	  1.300	 -9.169	 -0.397	 -0.158	  0.567	 33.000	 99.112	  0.530
48617	  0.409	 -0.018	  0.478	  1.709	  1.671	 -9.424	  0.095	 -0.647	  0.562	 33.100	 99.116	  0.167
48667	  0.425	 -0.017	  0.458	  1.252	  1.416	 -8.905	  0.278	 -0.870	  0.303	 33.100	 99.116	  0.167
48717	  0.449	 -0.015	  0.436	  0.283	  1.266	 -9.162	  0.750	 -1.117	  0.454	 33.100	 99.116	  0.167
48767	  0.473	  0.007	  0.420	  0.734	  0.889	 -10.370	  0.894	 -0.641	  0.504	 33.100	 99.116	  0.167
48817	  0.475	  0.009	  0.417	  0.397	  0.103	 -9.966	  0.586	 -0.018	  0.297	 33.100	 99.116	  0.167
48867	  0.475	  0.015	  0.417	  0.027	  0.338	 -10.401	  0.166	  0.007	  0.317	 33.100	 99.116	  0.167
48917	  0.472	  0.008	  0.414	 -0.005	  0.215	 -9.922	 -0.014	 -0.269	  0.289	 33.100	 99.116	  0.167
48967	  0.478	  0.015	  0.410	 -0.044	  0.244	 -9.962	 -0.016	 -0.168	  0.268	 33.100	 99.127	 -0.832
49017	  0.475	  0.003	  0.409	 -0.418	  0.563	 -9.870	 -0.046	 -0.200	  0.247	 33.100	 99.116	  0.167
49067	  0.478	  0.006	  0.406	 -0.764	  0.746	 -9.582	 -0.159	 -0.343	  0.088	 33.100	 99.116	  0.167
49117	  0.479	 -0.010	  0.393	 -1.055	  0.943	 -10.039	 -0.406	 -0.058	 -0.021	 33.100	 99.105	  1.165
49167	  0.470	 -0.017	  0.395	 -0.941	  0.817	 -9.945	 -0.647	  0.302	 -0.050	 33.100	 99.127	 -0.832
49217	  0.458	 -0.036	  0.398	 -0.598	  0.869	 -9.951	 -0.534	  0.436	 -0.180	 33.100	 99.116	  0.167
49267	  0.443	 -0.044	  0.401	 -0.670	  0.983	 -9.606	 -0.593	  0.352	 -0.193	 33.100	 99.127	 -0.832
49317	  0.423	 -0.051	  0.402	 -0.350	  1.274	 -9.695	 -0.334	  0.697	 -0.147	 33.100	 99.116	  0.167
49367	  0.408	 -0.053	  0.403	  0.264	  1.031	 -9.764	 -0.045	  0.189	 -0.306	 33.100	 99.127	 -0.832
49417	  0.395	 -0.047	  0.394	  0.656	  0.590	 -10.024	  0.237	  0.406	 -0.119	 33.100	 99.116	  0.167
49467	  0.384	 -0.038	  0.394	  0.482	 -0.280	 -10.279	  0.510	 -0.338	  0.179	 33.100	 99.105	  1.165
49517	  0.392	 -0.023	  0.382	  0.756	 -0.062	 -10.810	  0.492	 -1.131	  0.413	 33.100	 99.116	  0.167
49567	  0.415	 -0.022	  0.355	 -0.927	  0.394	 -11.783	 -0.330	 -1.121	  0.204	 33.100	 99.112	  0.530
49617	  0.414	 -0.044	  0.330	 -0.624	  1.362	 -10.884	 -1.076	 -0.060	  1.036	 33.100	 99.105	  1.165
49667	  0.394	 -0.080	  0.325	 -0.026	  0.724	 -8.289	 -0.644	  0.265	  0.956	 33.100	 99.116	  0.167
49717	  0.379	 -0.081	  0.318	 -1.138	  1.692	 -8.781	  0.343	 -0.244	  1.073	 33.100	 99.105	  1.165
49767	  0.378	 -0.100	  0.301	  0.128	  0.505	 -8.655	  0.413	 -0.866	  1.532	 33.100	 99.112	  0.530
49817	  0.371	 -0.109	  0.286	 -0.751	  0.615	 -9.205	  0.735	 -0.175	  1.197	 33.100	 99.105	  1.165
49867	  0.364	 -0.106	  0.282	 -1.464	  0.735	 -10.152	  0.787	 -0.517	  1.315	 33.100	 99.116	  0.167
49917	  0.350	 -0.116	  0.271	  0.187	  0.980	 -11.419	 -0.154	  0.689	  0.930	 33.100	 99.105	  1.165
49967	  0.321	 -0.127	  0.278	 -0.632	  1.027	 -9.555	 -0.347	  0.952	  0.665	 33.100	 99.105	  1.165
50017	  0.293	 -0.128	  0.280	 -0.146	  1.315	 -10.477	  0.126	  0.540	  0.634	 33.100	 99.116	  0.167
50067	  0.273	 -0.131	  0.276	  0.117	  1.071	 -10.500	 -0.023	  0.146	  0.467	 33.100	 99.116	  0.167
50117	  0.258	 -0.131	  0.270	 -0.220	  0.688	 -10.024	 -0.124	 -0.176	  0.471	 33.100	 99.116	  0.167
50167	  0.248	 -0.141	  0.259	 -0.265	  0.858	 -10.157	 -0.096	 -0.393	  0.949	 33.100	 99.116	  0.167
50217	  0.236	 -0.148	  0.257	  0.178	 -0.273	 -9.322	  0.049	 -0.508	  1.014	 33.100	 99.116	  0.167
50267	  0.232	 -0.156	  0.245	 -0.244	  0.394	 -9.539	 -0.115	 -0.566	  0.986	 33.100	 99.105	  1.165
50317	  0.223	 -0.163	  0.244	 -1.943	  1.038	 -9.273	  0.181	 -0.457	  1.015	 33.100	 99.116	  0.167
50367	  0.217	 -0.164	  0.245	 -0.899	  0.952	 -9.526	  0.335	 -0.323	  1.139	 33.100	 99.116	  0.167
50417	  0.207	 -0.167	  0.247	 -1.163	  1.097	 -9.053	  0.210	 -0.285	  1.074	 33.100	 99.127	 -0.832
50467	  0.197	 -0.174	  0.247	  0.215	  0.809	 -8.103	  0.024	 -0.230	  1.071	 33.100	 99.101	  1.529
50517	  0.192	 -0.172	  0.250	 -0.870	  1.527	 -8.024	  0.408	 -0.285	  1.022	 33.100	 99.105	  1.165
50567	  0.188	 -0.169	  0.254	  0.054	  1.144	 -8.393	  0.247	 -0.478	  1.087	 33.100	 99.116	  0.167
50617	  0.183	 -0.173	  0.252	 -0.166	  1.748	 -8.649	  0.097	 -0.405	  1.036	 33.100	 99.112	  0.530
50667	  0.182	 -0.178	  0.252	  0.510	  1.537	 -8.893	 -0.082	 -0.392	  0.966	 33.100	 99.116	  0.167
50717	  0.175	 -0.189	  0.248	  0.021	  1.885	 -8.904	 -0.113	 -0.125	  0.877	 33.100	 99.116	  0.167
50767	  0.170	 -0.190	  0.251	  0.375	  2.138	 -9.120	 -0.110	  0.000	  0.867	 33.100	 99.116	  0.167
50817	  0.160	 -0.203	  0.242	 -0.576	  2.868	 -8.765	 -0.470	 -0.019	  0.378	 33.100	 99.105	  1.165
50867	  0.154	 -0.208	  0.242	 -2.001	  4.000	 -10.130	 -0.582	  0.122	  0.719	 33.100	 99.116	  0.167
50917	  0.140	 -0.219	  0.242	  0.984	  1.874	 -9.088	  0.240	  0.639	  0.677	 33.100	 99.116	  0.167
50967	  0.131	 -0.206	  0.252	  0.313	 -0.165	 -8.890	  1.017	 -0.138	 -0.443	 33.100	 99.116	  0.167
51017	  0.147	 -0.189	  0.258	 -1.900	  0.675	 -11.047	  0.611	 -0.756	  0.083	 33.100	 99.105	  1.165
51067	  0.146	 -0.184	  0.263	  0.278	 -0.131	 -10.805	 -0.265	  0.024	  0.288	 33.100	 99.116	  0.167
51117	  0.143	 -0.195	  0.253	 -0.161	  0.501	 -9.290	 -0.488	  0.163	  0.134	 33.100	 99.105	  1.165
51168	  0.142	 -0.199	  0.255	 -1.006	  1.365	 -9.195	 -0.211	 -0.032	  0.065	 33.100	 99.105	  1.165
51217	  0.143	 -0.197	  0.257	 -0.924	  1.062	 -8.871	  0.274	 -0.394	  0.148	 33.100	 99.105	  1.165
51268	  0.152	 -0.190	  0.252	 -0.710	  1.384	 -10.629	  0.082	 -0.386	 -0.049	 33.100	 99.105	  1.165
51317	  0.151	 -0.191	  0.251	 -1.429	  1.465	 -10.238	 -0.226	  0.552	 -0.268	 33.100	 99.116	  0.167
51367	  0.141	 -0.195	  0.258	 -1.020	  0.489	 -9.489	 -0.327	  0.821	 -0.188	 33.100	 99.116	  0.167
51417	  0.131	 -0.199	  0.259	 -1.093	  0.287	 -9.401	 -0.352	  0.487	 -0.280	 33.000	 99.112	  0.530
51468	  0.129	 -0.205	  0.256	 -0.809	  0.142	 -9.206	 -0.430	  0.484	 -0.503	 33.100	 99.105	  1.165
51518	  0.125	 -0.202	  0.260	 -1.145	  0.629	 -9.130	 -0.327	  0.605	 -0.722	 33.100	 99.105	  1.165
51567	  0.120	 -0.206	  0.260	 -1.711	  1.487	 -9.833	 -0.201	  0.574	 -0.217	 33.100	 99.116	  0.167
51618	  0.109	 -0.205	  0.261	  0.195	  0.730	 -9.581	  0.154	  0.640	  0.168	 33.100	 99.116	  0.167
51668	  0.105	 -0.202	  0.265	  0.424	 -0.129	 -9.418	  0.365	  0.117	 -0.656	 33.100	 99.116	  0.167
51718	  0.116	 -0.191	  0.264	 -1.270	  0.409	 -9.585	  0.406	 -0.492	 -0.924	 33.100	 99.105	  1.165
51768	  0.136	 -0.184	  0.263	 -1.851	  1.771	 -10.346	  0.041	 -0.706	 -1.013	 33.100	 99.116	  0.167
51818	  0.151	 -0.176	  0.265	 -1.136	  1.759	 -10.495	  0.162	 -0.317	 -0.933	 33.100	 99.105	  1.165
51868	  0.157	 -0.171	  0.267	  0.721	  1.669	 -10.958	  0.258	  0.490	 -1.248	 33.100	 99.105	  1.165
51918	  0.160	 -0.157	  0.268	  0.913	  0.657	 -10.134	  0.462	 -0.020	 -0.802	 33.100	 99.116	  0.167
51968	  0.169	 -0.141	  0.274	  1.429	  0.958	 -10.633	  0.404	 -0.502	 -0.530	 33.000	 99.123	 -0.469
52018	  0.185	 -0.135	  0.271	  0.679	  1.270	 -9.323	  0.152	 -0.659	 -0.757	 33.100	 99.116	  0.167
52068	  0.199	 -0.127	  0.266	  0.101	  2.651	 -9.401	  0.370	 -0.823	 -0.430	 33.100	 99.116	  0.167
52118	  0.211	 -0.119	  0.263	 -0.122	  1.423	 -8.564	  0.407	 -0.441	 -0.418	 33.100	 99.116	  0.167
52168	  0.219	 -0.108	  0.261	 -1.830	  1.446	 -9.533	  0.622	 -0.259	 -0.081	 33.100	 99.116	  0.167
52218	  0.218	 -0.093	  0.271	 -0.575	  1.133	 -10.733	  0.412	  0.183	  0.270	 33.100	 99.116	  0.167
52268	  0.211	 -0.096	  0.270	 -0.031	  0.380	 -10.129	  0.083	  0.518	 -0.249	 33.100	 99.105	  1.165
52318	  0.204	 -0.093	  0.275	 -1.411	  0.396	 -9.932	  0.013	  0.145	 -0.400	 33.100	 99.105	  1.165
52368	  0.204	 -0.087	  0.276	 -1.232	  0.309	 -9.525	  0.011	 -0.027	 -0.331	 33.100	 99.116	  0.167
52418	  0.204	 -0.086	  0.277	 -1.616	  0.468	 -9.441	  0.019	  0.118	 -0.457	 33.100	 99.116	  0.167
52468	  0.203	 -0.079	  0.280	 -2.191	  0.630	 -9.540	 -0.062	  0.183	 -0.225	 33.000	 99.112	  0.530
52518	  0.197	 -0.084	  0.280	 -1.449	  0.774	 -9.912	 -0.205	  0.488	 -0.077	 33.100	 99.105	  1.165
52568	  0.191	 -0.088	  0.284	 -1.530	  0.840	 -9.694	 -0.214	  0.524	 -0.214	 33.100	 99.116	  0.167
52618	  0.181	 -0.091	  0.288	 -1.196	  1.177	 -9.687	 -0.331	  0.333	 -0.224	 33.100	 99.116	  0.167
52668	  0.180	 -0.096	  0.285	 -1.456	  1.293	 -9.063	 -0.438	  0.187	 -0.333	 33.100	 99.105	  1.165
52718	  0.176	 -0.097	  0.282	 -1.757	  1.598	 -8.944	 -0.282	  0.149	 -0.178	 33.100	 99.105	  1.165
52768	  0.176	 -0.098	  0.287	 -0.981	  1.508	 -9.183	  0.008	  0.100	 -0.015	 33.000	 99.101	  1.529
52818	  0.174	 -0.099	  0.289	 -0.182	  1.197	 -9.769	  0.124	  0.026	 -0.136	 33.100	 99.116	  0.167
52868	  0.177	 -0.096	  0.288	 -0.036	  0.723	 -10.088	 -0.118	 -0.433	 -0.313	 33.100	 99.127	 -0.832
52918	  0.189	 -0.095	  0.282	 -0.751	  0.757	 -9.836	 -0.414	 -0.613	 -0.407	 33.100	 99.101	  1.529
52968	  0.200	 -0.096	  0.275	 -1.097	  0.710	 -9.664	 -0.104	 -0.281	 -0.223	 33.100	 99.116	  0.167
53018	  0.194	 -0.101	  0.279	 -0.431	  0.797	 -10.363	  0.186	  0.743	 -0.095	 33.100	 99.105	  1.165
53068	  0.179	 -0.090	  0.279	  0.028	  0.344	 -9.708	  0.366	  0.489	 -0.255	 33.100	 99.112	  0.530
53118	  0.183	 -0.083	  0.284	 -0.626	  0.234	 -9.667	  0.287	 -0.404	 -0.553	 33.100	 99.105	  1.165
53168	  0.193	 -0.058	  0.279	 -1.392	  0.184	 -9.985	  0.267	 -0.436	 -0.577	 33.000	 99.112	  0.530
53218	  0.198	 -0.062	  0.282	 -0.880	 -0.443	 -10.487	  0.181	 -0.024	 -0.370	 33.100	 99.116	  0.167
53268	  0.197	 -0.056	  0.277	 -0.025	 -0.239	 -10.531	 -0.274	  0.344	 -0.329	 33.100	 99.105	  1.165
53318	  0.193	 -0.062	  0.280	  0.064	  0.062	 -8.829	 -0.618	  0.173	 -0.658	 33.100	 99.127	 -0.832
53368	  0.193	 -0.060	  0.277	 -0.896	  0.137	 -8.458	 -0.253	 -0.229	 -0.934	 33.100	 99.116	  0.167
53418	  0.200	 -0.055	  0.275	 -1.710	  0.651	 -9.312	  0.082	 -0.210	 -0.758	 33.100	 99.116	  0.167
53468	  0.201	 -0.047	  0.272	 -0.889	  0.266	 -9.890	  0.062	  0.157	 -0.677	 33.100	 99.116	  0.167
53518	  0.197	 -0.039	  0.275	 -0.732	  0.117	 -9.734	 -0.196	  0.188	 -0.789	 33.100	 99.116	  0.167
53567	  0.198	 -0.037	  0.271	 -0.642	 -0.034	 -9.084	 -0.257	 -0.179	 -0.992	 33.100	 99.116	  0.167
53617	  0.201	 -0.026	  0.263	 -1.142	  0.066	 -9.176	 -0.099	 -0.280	 -1.069	 33.100	 99.120	 -0.196
53667	  0.206	 -0.019	  0.264	 -1.252	 -0.195	 -9.306	  0.099	 -0.158	 -1.060	 33.100	 99.116	  0.167
53717	  0.208	 -0.007	  0.266	 -1.294	 -0.198	 -10.464	 -0.012	 -0.108	 -0.826	 33.100	 99.116	  0.167
53767	  0.202	 -0.004	  0.264	 -0.467	  0.975	 -12.462	 -0.453	  0.960	 -0.493	 33.100	 99.116	  0.167
53817	  0.172	 -0.015	  0.277	  0.882	  1.277	 -10.710	 -0.942	  1.824	 -0.466	 33.100	 99.116	  0.167
53867	  0.142	 -0.022	  0.284	  1.714	  2.212	 -9.168	 -0.201	  1.454	 -0.425	 33.100	 99.116	  0.167
53917	  0.124	 -0.011	  0.287	  2.095	  1.586	 -9.034	  0.792	 -0.022	 -0.861	 33.100	 99.116	  0.167
53967	  0.134	  0.009	  0.276	  0.427	  1.611	 -10.176	  0.770	 -1.148	 -0.849	 33.100	 99.116	  0.167
54017	  0.147	  0.025	  0.274	  0.892	  1.472	 -10.749	  0.163	 -0.609	 -0.753	 33.100	 99.116	  0.167
54067	  0.151	  0.030	  0.275	  0.651	  1.147	 -10.054	 -0.297	 -0.108	 -0.801	 33.100	 99.127	 -0.832
54117	  0.146	  0.028	  0.278	  0.534	  1.485	 -9.464	 -0.431	  0.372	 -0.559	 33.100	 99.116	  0.167
54167	  0.135	  0.020	  0.281	 -0.079	  2.357	 -8.861	 -0.492	  0.304	 -0.741	 33.000	 99.123	 -0.469
54217	  0.127	  0.021	  0.288	 -0.997	  2.191	 -9.021	 -0.205	  0.413	 -0.462	 33.100	 99.123	 -0.469
54267	  0.116	  0.023	  0.290	  0.480	  0.852	 -8.834	 -0.049	  0.564	 -0.283	 33.100	 99.116	  0.167
54317	  0.105	  0.025	  0.297	 -0.414	 -0.052	 -8.535	  0.123	  0.359	 -0.279	 33.100	 99.105	  1.165
54367	  0.100	  0.028	  0.294	 -0.164	  0.544	 -8.320	  0.066	  0.107	  0.119	 33.100	 99.105	  1.165
54417	  0.098	  0.027	  0.299	 -0.017	  2.429	 -8.054	 -0.136	 -0.043	  0.022	 33.100	 99.105	  1.165
54467	  0.102	  0.024	  0.300	 -0.873	  3.362	 -5.260	  0.152	 -1.069	  0.326	 33.100	 99.105	  1.165
54517	  0.116	  0.047	  0.290	  1.231	  0.340	 -8.827	  1.652	  0.001	  0.179	 33.100	 99.116	  0.167
54567	  0.108	  0.077	  0.287	  0.317	 -2.656	 -11.835	  1.482	  0.359	  0.547	 33.100	 99.105	  1.165
54617	  0.103	  0.087	  0.282	 -0.167	 -2.614	 -12.886	 -0.371	  0.204	  0.539	 33.100	 99.116	  0.167
54667	  0.095	  0.081	  0.289	 -0.041	 -1.295	 -11.329	  0.082	  1.083	  1.267	 33.100	 99.127	 -0.832
54717	  0.078	  0.083	  0.295	  3.591	 -3.230	 -12.969	  0.169	  0.911	  1.069	 33.100	 99.116	  0.167
54767	  0.070	  0.084	  0.296	  1.111	 -1.332	 -11.640	 -0.042	  0.151	  0.767	 33.100	 99.105	  1.165
54817	  0.076	  0.079	  0.299	  1.437	 -1.683	 -10.081	  0.135	 -0.077	  0.938	 33.100	 99.116	  0.167
54867	  0.090	  0.082	  0.300	  1.724	 -1.599	 -10.151	  0.093	 -0.449	  1.146	 33.100	 99.116	  0.167
54917	  0.101	  0.078	  0.303	  1.917	 -1.960	 -9.232	  0.000	 -0.220	  1.110	 33.100	 99.093	  2.255
54967	  0.111	  0.075	  0.305	  2.115	 -1.170	 -8.106	 -0.256	  0.025	  0.707	 33.100	 99.116	  0.167
55017	  0.108	  0.065	  0.304	  0.639	  0.364	 -6.725	 -0.639	  0.413	  0.341	 33.000	 99.112	  0.530
55067	  0.100	  0.050	  0.313	  1.161	  0.971	 -7.910	 -0.642	  0.523	  0.382	 33.100	 99.127	 -0.832
55117	  0.096	  0.038	  0.319	  2.518	  0.864	 -9.248	 -0.554	  0.603	  0.079	 33.000	 99.112	  0.530
55167	  0.084	  0.026	  0.321	  2.565	  1.979	 -9.209	 -0.632	  0.459	 -0.174	 33.100	 99.116	  0.167
55217	  0.084	  0.025	  0.329	  3.395	  1.194	 -7.764	  0.024	 -0.321	 -0.655	 33.100	 99.116	  0.167
55267	  0.084	  0.029	  0.326	  2.399	  2.444	 -10.024	  0.027	  0.359	 -0.800	 33.100	 99.127	 -0.832
55317	  0.079	  0.039	  0.333	  2.896	  2.131	 -10.778	  0.052	  0.135	 -0.859	 33.100	 99.116	  0.167
55367	  0.077	  0.046	  0.336	  3.364	  2.113	 -11.093	 -0.159	  0.044	 -1.330	 33.100	 99.105	  1.165
55417	  0.078	  0.058	  0.337	  2.834	  2.294	 -10.830	  0.077	 -0.417	 -1.589	 33.100	 99.116	  0.167
55467	  0.077	  0.075	  0.345	  2.760	  1.467	 -10.738	  0.179	 -0.416	 -1.894	 33.100	 99.116	  0.167
55517	  0.067	  0.087	  0.344	  2.596	  1.174	 -10.468	  0.261	 -0.151	 -1.873	 33.100	 99.116	  0.167
55567	  0.051	  0.099	  0.358	  3.452	  0.172	 -9.632	  0.246	 -0.069	 -2.013	 33.100	 99.127	 -0.832
55617	  0.040	  0.107	  0.367	  2.672	 -0.089	 -9.333	  0.327	 -0.348	 -2.131	 33.100	 99.105	  1.165
55667	  0.029	  0.104	  0.370	  1.901	 -0.095	 -9.122	  0.139	 -0.390	 -2.018	 33.100	 99.120	 -0.196
55717	  0.025	  0.098	  0.372	  1.404	 -0.035	 -8.551	 -0.031	 -0.135	 -1.642	 33.100	 99.116	  0.167
55767	  0.016	  0.092	  0.379	  1.101	  0.655	 -8.302	 -0.009	  0.202	 -1.284	 33.100	 99.116	  0.167
55817	  0.007	  0.088	  0.385	  1.844	  0.801	 -7.892	  0.004	  0.325	 -1.043	 33.100	 99.101	  1.529
55867	 -0.005	  0.087	  0.384	  1.051	  1.422	 -8.093	  0.196	  0.223	 -0.887	 33.100	 99.127	 -0.832
55917	 -0.008	  0.079	  0.386	  0.876	  1.315	 -8.764	  0.240	 -0.115	 -0.629	 33.100	 99.116	  0.167
55967	  0.001	  0.078	  0.388	 -0.002	  0.901	 -9.896	 -0.373	 -0.393	 -0.301	 33.100	 99.127	 -0.832
56017	  0.006	  0.058	  0.385	 -0.402	  1.543	 -10.533	 -0.706	  0.159	  0.051	 33.100	 99.127	 -0.832
56067	 -0.001	  0.036	  0.386	  0.653	  1.767	 -9.765	 -0.321	  0.408	  0.404	 33.100	 99.116	  0.167
56117	 -0.001	  0.030	  0.387	  1.886	  0.561	 -9.841	  0.324	 -0.019	  0.383	 33.100	 99.116	  0.167
56167	  0.005	  0.043	  0.377	 -0.051	  0.651	 -11.623	  0.503	 -0.205	  0.544	 33.100	 99.120	 -0.196
56217	  0.006	  0.051	  0.373	  2.333	 -0.108	 -12.423	 -0.166	  0.119	  0.917	 33.100	 99.116	  0.167
56267	  0.014	  0.043	  0.370	  0.606	  1.038	 -9.815	 -0.655	 -0.267	  0.393	 33.100	 99.105	  1.165
56318	  0.015	  0.035	  0.366	  1.288	  0.496	 -9.983	 -0.467	  0.019	  0.054	 33.100	 99.116	  0.167
56367	  0.018	  0.031	  0.362	  0.287	  0.766	 -8.994	 -0.055	  0.094	  0.079	 33.100	 99.116	  0.167
56417	  0.014	  0.046	  0.363	 -0.401	  0.357	 -9.122	  0.611	  0.111	  0.120	 33.100	 99.116	  0.167
56467	  0.016	  0.068	  0.359	 -0.444	 -0.763	 -10.161	  0.871	 -0.382	  0.329	 33.100	 99.116	  0.167
56517	  0.025	  0.087	  0.350	 -0.817	 -0.982	 -10.553	  0.480	 -0.019	  0.453	 33.100	 99.116	  0.167
56567	  0.025	  0.095	  0.356	 -0.843	 -0.566	 -11.145	  0.173	  0.356	  0.769	 33.100	 99.116	  0.167
56617	  0.025	  0.093	  0.359	  0.011	 -0.797	 -10.737	 -0.729	  0.152	  0.650	 33.100	 99.116	  0.167
56667	  0.034	  0.084	  0.368	 -0.302	  0.042	 -9.793	 -0.879	 -0.257	  0.677	 33.100	 99.116	  0.167
56717	  0.041	  0.061	  0.370	  0.467	  0.471	 -9.365	 -0.833	  0.298	  0.585	 33.100	 99.116	  0.167
56768	  0.042	  0.049	  0.377	  0.312	  0.700	 -8.097	 -0.502	  0.270	  0.477	 33.100	 99.116	  0.167
56817	  0.042	  0.041	  0.375	  0.617	  1.062	 -8.799	 -0.129	  0.017	  0.380	 33.100	 99.112	  0.530
56868	  0.048	  0.040	  0.377	  0.388	  1.017	 -8.878	 -0.329	  0.028	  0.184	 33.100	 99.105	  1.165
56917	  0.054	  0.038	  0.381	  0.138	  1.634	 -8.953	 -0.521	  0.115	  0.230	 33.100	 99.116	  0.167
56967	  0.055	  0.024	  0.379	  0.155	  1.880	 -8.743	 -0.399	  0.080	  0.164	 33.100	 99.105	  1.165
57017	  0.060	  0.022	  0.378	  0.596	  2.391	 -9.518	  0.050	 -0.124	  0.295	 33.100	 99.105	  1.165
57067	  0.074	  0.022	  0.376	  1.436	  1.987	 -10.490	  0.397	 -0.668	  0.160	 33.100	 99.112	  0.530
57117	  0.094	  0.025	  0.373	  0.487	  2.051	 -11.234	 -0.120	 -0.727	 -0.012	 33.100	 99.123	 -0.469
57167	  0.104	  0.024	  0.372	  0.802	  2.479	 -11.211	 -0.219	  0.303	  0.264	 33.100	 99.112	  0.530
57217	  0.096	  0.023	  0.369	  2.103	  1.618	 -10.043	 -0.024	  0.285	  0.081	 33.100	 99.112	  0.530
57267	  0.098	  0.024	  0.366	  2.518	  1.406	 -10.868	  0.049	 -0.267	 -0.226	 33.100	 99.112	  0.530
57318	  0.108	  0.028	  0.361	  0.224	  2.169	 -10.719	 -0.047	 -0.578	 -0.355	 33.100	 99.116	  0.167
57368	  0.126	  0.018	  0.357	 -0.446	  1.660	 -9.990	 -0.247	 -0.880	  0.382	 33.000	 99.101	  1.529
57418	  0.140	  0.006	  0.344	  0.277	  1.419	 -9.063	 -0.658	 -0.605	  0.349	 33.100	 99.116	  0.167
57468	  0.151	 -0.006	  0.352	 -1.335	  1.937	 -7.855	 -0.585	 -0.260	  0.078	 33.100	 99.105	  1.165
57518	  0.156	 -0.015	  0.344	 -1.826	  2.187	 -7.627	  0.201	 -0.530	  0.515	 33.100	 99.116	  0.167
57568	  0.164	 -0.013	  0.339	 -1.053	  1.887	 -8.523	  0.619	 -0.438	  0.534	 33.100	 99.116	  0.167
57618	  0.176	 -0.001	  0.335	 -1.253	  1.798	 -8.958	  0.574	 -0.559	  0.608	 33.100	 99.116	  0.167
57668	  0.183	  0.000	  0.329	 -1.776	  1.989	 -9.327	  0.256	 -0.521	  0.779	 33.100	 99.116	  0.167
57718	  0.193	  0.003	  0.325	 -1.239	  1.927	 -9.716	  0.189	 -0.385	  1.079	 33.100	 99.105	  1.165
57768	  0.193	 -0.006	  0.328	 -0.288	  1.559	 -10.084	  0.340	  0.184	  0.935	 33.100	 99.116	  0.167
57818	  0.186	 -0.003	  0.326	 -0.179	  0.794	 -10.076	  0.471	  0.141	  0.720	 33.100	 99.116	  0.167
57868	  0.186	 -0.003	  0.319	  0.316	  0.618	 -10.790	  0.343	  0.064	  0.867	 33.100	 99.116	  0.167
57918	  0.179	 -0.002	  0.335	  0.681	  0.190	 -10.204	  0.497	  0.130	  0.705	 33.100	 99.116	  0.167
57968	  0.181	  0.008	  0.330	 -0.456	  0.723	 -10.371	  0.122	 -0.519	  0.557	 33.100	 99.116	  0.167
58017	  0.189	 -0.005	  0.327	 -0.694	  1.484	 -9.961	 -0.316	 -0.265	  0.531	 33.100	 99.116	  0.167
58067	  0.194	 -0.011	  0.329	 -0.960	  1.291	 -8.680	 -0.333	 -0.331	  0.291	 33.100	 99.116	  0.167
58117	  0.198	 -0.025	  0.330	 -1.918	  1.808	 -8.713	 -0.351	 -0.198	  0.215	 33.100	 99.116	  0.167
58167	  0.202	 -0.031	  0.334	 -1.967	  2.826	 -9.117	 -0.378	 -0.206	  0.277	 33.000	 99.101	  1.529
58217	  0.201	 -0.046	  0.338	 -0.770	  2.683	 -9.201	 -0.484	 -0.114	 -0.051	 33.100	 99.105	  1.165
58267	  0.202	 -0.055	  0.337	 -1.189	  3.066	 -8.726	 -0.451	 -0.296	 -0.481	 33.100	 99.116	  0.167
58317	  0.210	 -0.058	  0.335	 -0.719	  3.223	 -8.837	 -0.128	 -0.367	 -0.801	 33.100	 99.116	  0.167
58368	  0.213	 -0.052	  0.342	 -0.826	  3.506	 -10.052	  0.255	 -0.181	 -1.416	 33.100	 99.116	  0.167
58417	  0.225	 -0.029	  0.349	 -3.025	  3.033	 -9.931	  0.545	 -0.697	 -1.579	 33.100	 99.116	  0.167
58467	  0.235	 -0.013	  0.354	 -1.342	  3.746	 -12.020	  0.557	  0.111	 -0.763	 33.000	 99.101	  1.529
58517	  0.234	  0.004	  0.371	 -0.152	  2.183	 -9.923	  0.287	 -0.078	 -1.276	 33.100	 99.116	  0.167
58567	  0.249	  0.010	  0.372	 -2.877	  3.130	 -10.048	  0.105	 -0.572	 -1.134	 33.100	 99.116	  0.167
58617	  0.270	 -0.001	  0.369	 -1.710	  2.470	 -9.084	  0.107	 -0.892	 -0.777	 33.100	 99.105	  1.165
58667	  0.300	 -0.002	  0.363	 -1.698	  1.001	 -8.253	 -0.282	 -0.764	 -1.232	 33.100	 99.116	  0.167
58717	  0.325	 -0.024	  0.354	 -3.553	  0.934	 -8.374	 -0.646	 -0.482	 -0.783	 33.100	 99.116	  0.167
58767	  0.344	 -0.052	  0.348	 -1.192	  0.590	 -8.489	 -0.861	  0.069	 -0.434	 33.100	 99.105	  1.165
58817	  0.357	 -0.086	  0.342	 -2.764	  0.388	 -7.413	 -0.756	 -0.296	 -0.675	 33.100	 99.105	  1.165
58867	  0.381	 -0.118	  0.322	 -2.182	  1.063	 -6.870	 -0.415	 -0.574	 -0.135	 33.100	 99.105	  1.165
58917	  0.408	 -0.154	  0.308	 -1.428	  1.056	 -6.233	 -0.219	 -0.481	 -0.393	 33.100	 99.105	  1.165
58967	  0.441	 -0.175	  0.292	 -3.741	  0.828	 -6.991	 -0.377	 -0.521	 -0.862	 33.100	 99.116	  0.167
59017	  0.470	 -0.215	  0.290	 -3.262	  3.014	 -8.522	 -0.194	  0.446	  0.032	 33.100	 99.116	  0.167
59067	  0.490	 -0.242	  0.320	 -2.027	  0.456	 -7.037	  0.611	  0.708	 -0.860	 33.100	 99.116	  0.167
59117	  0.508	 -0.237	  0.375	 -3.217	  1.565	 -9.817	  0.612	  1.566	 -0.761	 33.100	 99.116	  0.167
59167	  0.498	 -0.222	  0.449	 -2.101	 -0.579	 -8.826	  0.354	  1.055	 -0.649	 33.100	 99.116	  0.167
59217	  0.496	 -0.204	  0.492	 -2.862	 -0.384	 -10.084	  0.008	  0.260	 -0.595	 33.100	 99.112	  0.530
59267	  0.508	 -0.174	  0.501	 -4.625	  0.160	 -10.367	  0.099	 -0.850	 -0.363	 33.100	 99.105	  1.165
59317	  0.528	 -0.170	  0.482	 -2.153	 -0.448	 -11.223	 -0.280	 -0.397	 -0.327	 33.100	 99.116	  0.167
59367	  0.527	 -0.161	  0.474	  1.852	 -3.605	 -8.901	  0.096	  0.177	 -0.758	 33.100	 99.116	  0.167
59417	  0.536	 -0.118	  0.462	 -2.833	  0.798	 -9.969	  0.310	 -0.415	 -0.774	 33.100	 99.101	  1.529
59467	  0.541	 -0.086	  0.454	 -2.558	  1.043	 -10.095	  0.094	  0.457	 -0.406	 33.000	 99.112	  0.530
59517	  0.527	 -0.054	  0.469	 -2.861	  1.068	 -9.348	  0.343	  1.106	 -0.010	 33.100	 99.116	  0.167
59567	  0.516	 -0.037	  0.485	 -1.998	 -0.631	 -8.856	  0.498	  0.173	  0.237	 33.000	 99.112	  0.530
59617	  0.526	 -0.001	  0.481	 -2.143	 -2.128	 -10.267	  0.811	  0.075	 -0.407	 33.100	 99.127	 -0.832
59667	  0.521	  0.048	  0.487	 -3.304	 -3.060	 -10.160	  0.257	  0.869	 -0.935	 33.100	 99.116	  0.167
59717	  0.518	  0.083	  0.492	 -2.214	 -0.520	 -10.521	  0.188	 -0.067	 -0.738	 33.100	 99.105	  1.165
59767	  0.505	  0.124	  0.503	 -1.519	 -1.183	 -10.347	 -0.035	  0.816	 -1.376	 33.100	 99.116	  0.167
59817	  0.486	  0.168	  0.525	 -4.144	 -0.105	 -8.916	  0.372	  0.405	 -1.025	 33.100	 99.112	  0.530
59867	  0.488	  0.201	  0.530	 -1.628	 -0.565	 -10.446	  0.187	  0.459	  0.209	 33.100	 99.116	  0.167
59917	  0.476	  0.208	  0.558	 -0.683	 -3.093	 -9.619	 -0.318	  0.601	 -0.360	 33.100	 99.112	  0.530
59967	  0.464	  0.219	  0.577	 -2.737	 -2.068	 -9.315	 -0.169	  0.410	 -0.324	 33.100	 99.116	  0.167
60017	  0.459	  0.224	  0.604	 -2.795	 -2.492	 -9.273	 -0.210	  0.692	 -0.177	 33.100	 99.116	  0.167
60067	  0.447	  0.236	  0.615	 -2.398	 -0.770	 -8.419	  0.522	  0.558	  0.120	 33.000	 99.123	 -0.469
60117	  0.452	  0.265	  0.613	 -0.851	 -0.866	 -9.830	  0.513	  0.316	 -0.012	 33.100	 99.112	  0.530
60167	  0.459	  0.295	  0.594	  0.286	 -2.982	 -9.547	  0.745	  0.155	 -0.068	 33.100	 99.116	  0.167
60217	  0.490	  0.312	  0.564	 -1.538	 -2.109	 -9.552	  0.353	 -0.386	  0.818	 33.100	 99.116	  0.167
60267	  0.531	  0.291	  0.540	  1.846	 -2.529	 -8.907	  0.142	 -0.405	  1.003	 33.100	 99.105	  1.165
60317	  0.583	  0.304	  0.498	 -0.380	 -2.008	 -10.104	 -0.137	 -1.462	 -0.196	 33.000	 99.112	  0.530
60367	  0.638	  0.291	  0.471	 -1.922	 -3.352	 -7.726	 -0.974	 -1.198	  0.134	 33.000	 99.123	 -0.469
60417	  0.684	  0.283	  0.446	 -2.981	 -3.313	 -10.894	 -0.786	 -0.020	  0.194	 33.100	 99.112	  0.530
60467	  0.697	  0.257	  0.458	 -1.001	 -3.472	 -7.436	  0.285	  1.361	  0.936	 33.100	 99.112	  0.530
60517	  0.715	  0.278	  0.447	 -3.033	 -0.558	 -11.867	  1.359	  0.986	  0.199	 33.100	 99.139	 -1.921
60567	  0.738	  0.309	  0.412	 -0.783	 -3.752	 -10.666	  0.669	  0.178	  0.359	 33.100	 99.123	 -0.469
60617	  0.770	  0.310	  0.377	 -1.124	 -2.176	 -8.107	 -0.360	 -0.272	 -0.166	 33.100	 99.116	  0.167
60667	  0.805	  0.295	  0.340	 -1.939	 -1.913	 -9.332	 -0.455	  0.741	  1.176	 33.100	 99.127	 -0.832
60717	  0.832	  0.251	  0.353	  0.121	 -2.793	 -7.008	  1.130	  2.172	  0.384	 33.100	 99.116	  0.167
60767	  0.879	  0.316	  0.328	 -0.242	 -5.264	 -10.270	  1.995	  0.638	 -0.626	 33.000	 99.123	 -0.469
60817	  0.896	  0.331	  0.322	  1.786	 -3.229	 -8.954	 -0.754	  0.015	  0.012	 33.100	 99.116	  0.167
60867	  0.892	  0.303	  0.333	 -0.394	 -3.070	 -8.735	 -0.622	  0.410	  0.403	 33.100	 99.127	 -0.832
60917	  0.888	  0.273	  0.350	  1.455	 -2.809	 -7.825	 -0.615	 -0.472	  0.151	 33.100	 99.116	  0.167
60967	  0.898	  0.266	  0.342	 -0.296	 -2.604	 -9.847	 -0.436	  0.301	  0.015	 33.000	 99.112	  0.530
61017	  0.894	  0.253	  0.357	  0.385	 -1.444	 -9.000	 -0.829	  0.148	  0.041	 33.100	 99.127	 -0.832
61067	  0.891	  0.232	  0.366	  0.191	 -2.044	 -9.597	 -0.470	  0.076	  0.202	 33.100	 99.116	  0.167
61117	  0.887	  0.209	  0.377	  0.277	 -1.975	 -9.698	 -1.076	  0.063	  0.011	 33.100	 99.116	  0.167
61167	  0.882	  0.179	  0.388	  0.614	 -1.325	 -9.224	 -0.778	  0.054	  0.330	 33.100	 99.116	  0.167
61217	  0.878	  0.152	  0.401	  0.445	 -1.079	 -9.683	 -0.677	  0.066	  0.180	 33.100	 99.116	  0.167
61267	  0.876	  0.124	  0.408	  0.237	 -0.795	 -9.999	 -0.734	  0.158	  0.074	 33.100	 99.116	  0.167
61317	  0.862	  0.106	  0.423	  0.620	 -0.294	 -9.623	 -0.295	  0.219	  0.055	 33.100	 99.112	  0.530
61367	  0.856	  0.083	  0.430	  0.904	  1.265	 -5.084	 -0.857	 -0.722	  0.358	 33.100	 99.127	 -0.832
61417	  0.873	  0.067	  0.407	 -0.651	 -0.501	 -11.982	 -0.186	  0.544	 -0.009	 33.100	 99.116	  0.167
61467	  0.876	  0.062	  0.401	 -0.684	 -0.142	 -10.616	  0.003	 -0.076	 -0.021	 33.100	 99.123	 -0.469
61517	  0.875	  0.064	  0.403	  0.127	  0.037	 -10.042	  0.013	 -0.074	  0.006	 33.000	 99.123	 -0.469
61567	  0.874	  0.064	  0.406	  0.532	  0.165	 -9.358	  0.002	 -0.014	  0.000	 33.000	 99.123	 -0.469
61617	  0.873	  0.068	  0.402	  0.470	  0.269	 -9.157	 -0.021	  0.028	  0.011	 33.100	 99.127	 -0.832
61667	  0.875	  0.063	  0.405	  0.297	  0.098	 -9.664	  0.007	 -0.030	  0.001	 33.100	 99.116	  0.167
61717	  0.874	  0.063	  0.401	  0.287	  0.076	 -9.705	  0.008	 -0.032	 -0.000	 33.100	 99.116	  0.167
61767	  0.872	  0.064	  0.399	  0.348	  0.070	 -9.688	 -0.004	  0.009	 -0.001	 33.100	 99.112	  0.530
61817	  0.875	  0.068	  0.404	  0.277	  0.083	 -9.752	 -0.005	  0.012	  0.001	 33.100	 99.116	  0.167
61867	  0.875	  0.061	  0.401	  0.253	  0.069	 -9.760	 -0.006	  0.007	 -0.001	 33.100	 99.112	  0.530
61917	  0.875	  0.065	  0.399	  0.271	  0.065	 -9.747	 -0.005	  0.006	  0.000	 33.000	 99.112	  0.530
61967	  0.875	  0.068	  0.402	  0.254	  0.062	 -9.755	 -0.002	 -0.002	  0.001	 33.100	 99.127	 -0.832
62017	  0.876	  0.066	  0.402	  0.247	  0.013	 -9.853	 -0.009	 -0.001	 -0.006	 33.100	 99.112	  0.530
62067	  0.875	  0.072	  0.400	  0.230	  0.089	 -9.758	 -0.004	 -0.003	  0.002	 33.000	 99.112	  0.530
62117	  0.877	  0.064	  0.394	  0.304	  0.081	 -9.712	  0.004	 -0.099	 -0.002	 33.000	 99.112	  0.530
62167	  0.881	  0.063	  0.393	  0.167	  0.068	 -9.789	  0.010	 -0.177	 -0.002	 33.100	 99.116	  0.167
62217	  0.881	  0.070	  0.393	  0.175	  0.044	 -9.783	 -0.015	  0.054	 -0.002	 33.000	 99.112	  0.530
62268	  0.883	  0.064	  0.391	  0.044	  0.036	 -9.853	 -0.003	 -0.002	  0.000	 33.100	 99.123	 -0.469
62317	  0.883	  0.063	  0.395	  0.429	  0.118	 -9.446	 -0.012	  0.033	 -0.021	 33.000	 99.112	  0.530
62368	  0.882	  0.074	  0.392	 -0.093	  0.043	 -9.968	  0.008	 -0.040	 -0.009	 33.000	 99.112	  0.530
62417	  0.882	  0.067	  0.392	  0.165	  0.056	 -9.751	  0.002	 -0.018	 -0.000	 33.100	 99.116	  0.167
62468	  0.885	  0.066	  0.390	  0.251	  0.078	 -9.678	  0.001	 -0.015	 -0.002	 33.100	 99.116	  0.167
62517	  0.884	  0.067	  0.392	  0.170	  0.067	 -9.739	 -0.003	 -0.003	  0.000	 33.100	 99.123	 -0.469
62567	  0.884	  0.074	  0.392	  0.143	  0.341	 -9.650	  0.003	 -0.002	 -0.032	 33.100	 99.127	 -0.832
62617	  0.884	  0.066	  0.394	 -0.323	 -0.057	 -10.377	 -0.010	  0.079	 -0.033	 33.100	 99.127	 -0.832
62667	  0.878	  0.068	  0.393	  0.219	  0.023	 -9.965	 -0.029	  0.207	 -0.002	 33.000	 99.112	  0.530
62717	  0.878	  0.064	  0.399	  0.055	  0.025	 -10.180	 -0.006	 -0.001	 -0.003	 33.100	 99.127	 -0.832
62767	  0.877	  0.066	  0.400	  0.256	  0.065	 -9.757	 -0.003	 -0.009	 -0.000	 33.000	 99.112	  0.530
62817	  0.877	  0.068	  0.401	  0.279	  0.065	 -9.758	 -0.001	 -0.004	  0.002	 33.100	 99.123	 -0.469
62867	  0.878	  0.068	  0.401	  0.292	  0.085	 -9.810	 -0.003	 -0.000	  0.001	 33.100	 99.112	  0.530
62918	  0.877	  0.066	  0.401	  0.248	  0.065	 -9.768	 -0.005	  0.003	  0.001	 33.000	 99.123	 -0.469
62968	  0.878	  0.066	  0.402	  0.302	  0.064	 -9.746	  0.000	  0.004	  0.000	 33.000	 99.123	 -0.469
63018	  0.871	  0.070	  0.400	  0.073	 -0.403	 -10.826	 -0.071	  0.226	  0.172	 33.100	 99.116	  0.167
63068	  0.867	  0.065	  0.402	  4.721	  1.134	 -11.790	  0.120	 -0.322	  0.048	 33.000	 99.123	 -0.469
63118	  0.870	  0.056	  0.395	  0.588	  0.132	 -9.382	  0.040	 -0.145	  0.001	 33.000	 99.112	  0.530
63168	  0.872	  0.060	  0.394	  0.316	  0.074	 -9.730	 -0.007	  0.023	  0.001	 33.000	 99.123	 -0.469
63218	  0.873	  0.062	  0.395	  0.234	  0.087	 -9.780	  0.002	 -0.018	 -0.001	 33.000	 99.123	 -0.469
63268	  0.873	  0.059	  0.396	  0.267	  0.070	 -9.789	 -0.007	  0.017	  0.001	 33.100	 99.127	 -0.832
63318	  0.872	  0.060	  0.396	  0.313	  0.031	 -9.776	  0.004	 -0.019	 -0.000	 33.100	 99.112	  0.530
63368	  0.872	  0.059	  0.399	  0.248	  0.070	 -9.743	 -0.008	  0.017	 -0.000	 33.000	 99.135	 -1.559
63418	  0.873	  0.065	  0.400	  0.308	  0.080	 -9.757	 -0.000	 -0.003	  0.000	 33.100	 99.135	 -1.559
63468	  0.873	  0.059	  0.392	  0.289	  0.076	 -9.743	 -0.003	 -0.000	 -0.000	 33.000	 99.112	  0.530
63518	  0.876	  0.060	  0.401	  0.250	  0.060	 -9.735	 -0.006	  0.007	 -0.000	 33.000	 99.112	  0.530
63568	  0.872	  0.061	  0.396	  0.323	  0.112	 -9.794	 -0.002	  0.003	 -0.000	 33.000	 99.112	  0.530
63618	  0.874	  0.062	  0.396	  0.387	  0.044	 -9.639	 -0.002	  0.002	 -0.003	 33.000	 99.112	  0.530
63668	  0.875	  0.060	  0.392	  0.299	 -0.024	 -9.877	 -0.005	  0.006	 -0.001	 33.000	 99.112	  0.530
63718	  0.874	  0.060	  0.392	  0.311	  0.053	 -9.684	 -0.004	 -0.002	  0.001	 33.100	 99.127	 -0.832
63768	  0.877	  0.059	  0.394	  0.263	  0.028	 -9.810	 -0.004	  0.003	 -0.000	 33.100	 99.116	  0.167
63818	  0.877	  0.060	  0.398	  0.286	  0.083	 -9.715	 -0.004	  0.000	  0.000	 33.100	 99.112	  0.530
63868	  0.876	  0.062	  0.398	  0.310	  0.076	 -9.730	 -0.002	 -0.001	  0.001	 33.000	 99.112	  0.530
63918	  0.876	  0.058	  0.397	  0.316	  0.082	 -9.757	 -0.004	  0.005	 -0.000	 33.000	 99.112	  0.530
63968	  0.878	  0.060	  0.396	  0.279	  0.082	 -9.753	 -0.004	  0.002	  0.001	 33.000	 99.112	  0.530
64018	  0.875	  0.060	  0.394	  0.279	  0.092	 -9.753	 -0.003	  0.003	  0.000	 33.100	 99.123	 -0.469
64068	  0.873	  0.060	  0.394	  0.296	  0.065	 -9.754	 -0.004	  0.003	  0.001	 33.000	 99.112	  0.530
64118	  0.876	  0.061	  0.393	  0.296	  0.057	 -9.738	 -0.003	  0.002	 -0.000	 33.000	 99.112	  0.530
64168	  0.876	  0.058	  0.394	  0.285	  0.047	 -9.745	 -0.004	  0.003	  0.001	 33.000	 99.112	  0.530
64218	  0.875	  0.061	  0.393	  0.269	  0.081	 -9.749	 -0.003	  0.002	  0.001	 33.000	 99.112	  0.530
64268	  0.877	  0.063	  0.401	  0.296	  0.060	 -9.754	 -0.003	  0.000	  0.001	 33.000	 99.112	  0.530
64318	  0.877	  0.060	  0.394	  0.266	  0.050	 -9.763	 -0.004	  0.002	  0.001	 33.000	 99.123	 -0.469
64368	  0.876	  0.057	  0.394	  0.278	  0.060	 -9.764	 -0.004	  0.003	  0.001	 33.000	 99.123	 -0.469
64418	  0.876	  0.060	  0.394	  0.279	  0.066	 -9.740	 -0.005	  0.003	  0.000	 33.000	 99.112	  0.530
64468	  0.874	  0.061	  0.398	  0.288	  0.075	 -9.776	 -0.004	  0.002	  0.001	 33.000	 99.112	  0.530
64518	  0.875	  0.058	  0.394	  0.270	  0.069	 -9.745	 -0.004	  0.002	 -0.001	 33.100	 99.112	  0.530
64568	  0.877	  0.061	  0.390	  0.267	  0.063	 -9.771	 -0.004	  0.002	  0.001	 33.000	 99.112	  0.530
64618	  0.876	  0.059	  0.400	  0.299	  0.065	 -9.769	 -0.004	  0.003	 -0.000	 33.000	 99.123	 -0.469
64668	  0.874	  0.061	  0.394	  0.285	  0.066	 -9.756	 -0.003	  0.002	  0.002	 33.000	 99.112	  0.530
64718	  0.879	  0.060	  0.398	  0.275	  0.072	 -9.743	 -0.004	  0.004	  0.001	 33.000	 99.123	 -0.469
64768	  0.875	  0.060	  0.391	  0.308	  0.066	 -9.735	 -0.003	  0.004	  0.001	 33.100	 99.116	  0.167
64818	  0.876	  0.059	  0.396	  0.277	  0.074	 -9.761	 -0.004	  0.001	  0.000	 33.000	 99.112	  0.530
64868	  0.876	  0.059	  0.394	  0.283	  0.068	 -9.750	 -0.003	  0.002	  0.000	 33.000	 99.112	  0.530
64918	  0.874	  0.059	  0.400	  0.362	  0.034	 -9.803	 -0.006	  0.007	 -0.003	 33.100	 99.123	 -0.469
64968	  0.874	  0.056	  0.396	  0.282	  0.074	 -9.754	 -0.002	 -0.004	  0.001	 33.000	 99.112	  0.530
65018	  0.879	  0.060	  0.398	  0.289	  0.081	 -9.680	 -0.002	  0.001	 -0.001	 33.100	 99.123	 -0.469
65068	  0.878	  0.063	  0.392	  0.266	  0.057	 -9.813	 -0.003	  0.002	  0.001	 33.000	 99.123	 -0.469
65118	  0.874	  0.058	  0.399	  0.272	  0.074	 -9.759	 -0.003	  0.003	  0.001	 33.000	 99.112	  0.530
65168	  0.876	  0.059	  0.398	  0.291	  0.123	 -9.705	 -0.003	  0.007	 -0.001	 33.000	 99.123	 -0.469
65218	  0.876	  0.060	  0.396	  0.325	  0.087	 -9.780	 -0.004	  0.002	  0.001	 33.000	 99.112	  0.530
65268	  0.876	  0.057	  0.397	  0.300	  0.043	 -9.786	 -0.002	 -0.001	 -0.000	 33.100	 99.123	 -0.469
65318	  0.874	  0.060	  0.390	  0.345	  0.014	 -9.637	 -0.004	  0.002	 -0.001	 33.100	 99.116	  0.167
65368	  0.877	  0.059	  0.394	  0.305	  0.081	 -9.742	 -0.004	  0.004	  0.001	 33.000	 99.123	 -0.469
65418	  0.876	  0.063	  0.395	  0.216	  0.004	 -9.621	 -0.002	  0.003	  0.001	 33.100	 99.116	  0.167
65468	  0.878	  0.062	  0.396	  0.285	  0.075	 -9.789	 -0.004	  0.008	 -0.000	 33.000	 99.112	  0.530
65518	  0.878	  0.061	  0.397	  0.338	  0.053	 -9.752	 -0.001	 -0.001	 -0.000	 33.100	 99.123	 -0.469
65568	  0.878	  0.060	  0.397	  0.253	  0.080	 -9.785	 -0.004	  0.003	  0.001	 33.000	 99.112	  0.530
65618	  0.877	  0.057	  0.393	  0.261	  0.074	 -9.797	 -0.003	  0.005	 -0.000	 33.100	 99.116	  0.167
65668	  0.877	  0.060	  0.397	  0.562	 -0.016	 -9.235	  0.036	  0.036	  0.004	 33.000	 99.112	  0.530
65718	  0.876	  0.058	  0.397	  0.274	  0.100	 -9.730	 -0.007	 -0.029	  0.013	 33.000	 99.123	 -0.469
65768	  0.874	  0.062	  0.391	  0.285	  0.042	 -9.746	 -0.008	  0.001	  0.016	 33.000	 99.123	 -0.469
65818	  0.876	  0.060	  0.397	  0.296	  0.091	 -9.701	 -0.003	  0.001	  0.003	 33.000	 99.123	 -0.469
65868	  0.876	  0.059	  0.392	  0.317	  0.063	 -9.742	 -0.003	 -0.002	 -0.000	 33.000	 99.112	  0.530
65918	  0.875	  0.053	  0.393	  0.317	  0.042	 -9.741	  0.004	  0.013	 -0.004	 33.000	 99.112	  0.530
65968	  0.876	  0.059	  0.394	  0.309	  0.019	 -9.761	 -0.005	 -0.001	  0.001	 33.100	 99.105	  1.165
66017	  0.877	  0.062	  0.393	 -0.132	  0.952	 -9.800	  0.001	  0.018	  0.011	 33.100	 99.112	  0.530
66067	  0.877	  0.054	  0.397	  0.482	  0.020	 -9.543	 -0.004	  0.004	 -0.004	 33.000	 99.112	  0.530
66117	  0.873	  0.063	  0.394	  0.287	 -0.028	 -9.792	 -0.003	  0.001	  0.001	 33.000	 99.112	  0.530
66167	  0.875	  0.056	  0.392	  0.245	  0.030	 -9.764	 -0.010	  0.004	  0.014	 33.000	 99.112	  0.530
66217	  0.877	  0.058	  0.392	  0.303	  0.086	 -9.749	 -0.002	 -0.001	 -0.001	 33.000	 99.112	  0.530
66267	  0.877	  0.061	  0.392	  0.279	  0.035	 -9.756	 -0.004	  0.004	  0.011	 33.000	 99.112	  0.530
66317	  0.875	  0.058	  0.394	  0.230	  0.138	 -9.904	 -0.006	 -0.001	  0.005	 33.100	 99.116	  0.167
66367	  0.876	  0.058	  0.393	  0.260	 -0.042	 -9.979	 -0.000	  0.002	 -0.004	 33.000	 99.123	 -0.469
66417	  0.878	  0.055	  0.393	 -0.044	  0.083	 -10.451	 -0.020	  0.023	 -0.006	 33.000	 99.123	 -0.469
66467	  0.875	  0.057	  0.392	  0.354	 -0.002	 -9.629	 -0.004	 -0.014	  0.005	 33.000	 99.135	 -1.559
66517	  0.876	  0.061	  0.395	  0.347	  0.140	 -9.509	 -0.023	  0.018	  0.002	 33.100	 99.112	  0.530
66567	  0.877	  0.057	  0.390	  0.327	  0.068	 -9.626	 -0.000	 -0.012	 -0.001	 33.000	 99.112	  0.530
66617	  0.877	  0.059	  0.397	  0.271	  0.101	 -9.730	 -0.003	  0.004	  0.002	 33.100	 99.112	  0.530
66667	  0.879	  0.062	  0.393	  0.393	 -0.297	 -10.046	 -0.002	 -0.003	 -0.002	 33.000	 99.112	  0.530
66717	  0.876	  0.059	  0.397	  0.302	  0.122	 -10.253	  0.000	 -0.014	  0.004	 33.000	 99.180	 -5.643
66767	  0.878	  0.058	  0.393	  0.278	  0.084	 -9.791	 -0.003	 -0.006	  0.002	 33.000	 99.112	  0.530
66817	  0.876	  0.057	  0.397	  0.266	  0.077	 -9.820	 -0.003	  0.004	  0.001	 33.000	 99.135	 -1.559
66867	  0.880	  0.058	  0.397	  0.286	  0.066	 -9.763	 -0.003	  0.001	  0.001	 33.000	 99.130	 -1.104
66917	  0.875	  0.062	  0.396	  0.280	  0.050	 -9.749	 -0.003	  0.003	  0.000	 33.000	 99.146	 -2.558
66967	  0.879	  0.056	  0.398	  0.256	  0.063	 -9.779	 -0.003	  0.004	  0.001	 33.000	 99.157	 -3.555
67017	  0.875	  0.057	  0.391	  0.290	  0.062	 -9.778	 -0.003	  0.002	 -0.000	 33.100	 99.161	 -3.919
67067	  0.876	  0.061	  0.394	  0.285	  0.090	 -9.790	 -0.002	  0.001	  0.003	 33.000	 99.169	 -4.645
67117	  0.875	  0.063	  0.392	  0.286	  0.072	 -9.711	 -0.004	  0.001	 -0.000	 33.000	 99.225	 -9.725
67167	  0.878	  0.063	  0.391	  0.310	  0.098	 -9.716	 -0.002	  0.001	 -0.000	 33.100	 99.218	 -9.090
67217	  0.877	  0.054	  0.393	 -0.220	 -0.139	 -9.774	 -0.011	  0.000	  0.155	 33.000	 99.543	 -38.511
67267	  0.874	  0.046	  0.393	  0.446	  0.155	 -9.759	 -0.009	  0.015	  0.078	 33.000	 99.679	 -50.788
67317	  0.874	  0.047	  0.390	  0.309	  0.063	 -9.830	 -0.000	  0.003	  0.008	 33.000	 99.826	 -64.036
67367	  0.878	  0.047	  0.391	  0.356	  0.046	 -9.691	 -0.005	  0.007	  0.001	 33.000	 99.871	 -68.086
67417	  0.876	  0.048	  0.391	  0.129	  0.248	 -9.810	 -0.006	  0.011	 -0.007	 33.000	 99.883	 -69.167
67467	  0.874	  0.045	  0.390	  0.258	  0.071	 -9.668	 -0.004	 -0.007	 -0.004	 33.000	 99.871	 -68.086
67517	  0.875	  0.052	  0.391	  0.280	  0.043	 -9.825	 -0.003	  0.003	  0.001	 33.000	 99.871	 -68.086
67567	  0.873	  0.047	  0.386	  0.272	  0.099	 -9.880	 -0.004	  0.010	  0.000	 33.100	 99.826	 -64.036
67617	  0.873	  0.048	  0.392	  0.357	 -0.032	 -9.835	 -0.014	  0.031	  0.001	 33.000	 99.803	 -61.964
67667	  0.874	  0.052	  0.389	  0.352	  0.082	 -9.666	 -0.001	 -0.004	  0.002	 33.000	 99.781	 -59.982
67717	  0.873	  0.050	  0.390	  0.271	  0.100	 -9.815	 -0.004	  0.008	  0.001	 33.000	 99.747	 -56.919
67767	  0.872	  0.047	  0.391	  0.301	  0.084	 -9.754	 -0.003	 -0.001	  0.000	 33.000	 99.713	 -53.854
67817	  0.876	  0.047	  0.393	  0.294	  0.083	 -9.760	 -0.004	  0.005	 -0.002	 33.000	 99.690	 -51.780
67867	  0.873	  0.049	  0.390	  0.285	  0.086	 -9.745	 -0.002	 -0.000	 -0.006	 33.100	 99.656	 -48.713
67917	  0.875	  0.046	  0.391	  0.269	  0.088	 -9.756	 -0.003	  0.006	  0.001	 33.000	 99.618	 -45.283
67967	  0.873	  0.047	  0.392	  0.253	  0.091	 -9.710	 -0.003	  0.002	  0.000	 33.000	 99.611	 -44.652
68018	  0.874	  0.051	  0.392	  0.291	  0.081	 -9.750	 -0.003	  0.000	  0.001	 33.000	 99.588	 -42.575
68067	  0.872	  0.046	  0.393	  0.285	  0.078	 -9.772	 -0.003	  0.005	  0.002	 33.100	 99.569	 -40.859
68118	  0.874	  0.048	  0.391	  0.286	  0.086	 -9.757	 -0.004	  0.002	  0.000	 33.100	 99.543	 -38.511
68167	  0.874	  0.049	  0.396	  0.310	  0.087	 -9.779	 -0.004	  0.002	  0.000	 33.000	 99.531	 -37.426
68218	  0.871	  0.050	  0.393	  0.318	  0.090	 -9.728	 -0.004	  0.004	 -0.000	 33.000	 99.497	 -34.354
68267	  0.873	  0.047	  0.393	  0.298	  0.073	 -9.739	 -0.003	  0.002	 -0.000	 33.000	 99.497	 -34.354
68317	  0.872	  0.049	  0.393	  0.281	  0.068	 -9.782	 -0.003	  0.002	  0.000	 33.000	 99.463	 -31.279
68367	  0.875	  0.047	  0.397	  0.266	  0.103	 -9.770	 -0.003	  0.004	 -0.000	 33.000	 99.463	 -31.279
68417	  0.873	  0.048	  0.387	  0.287	  0.064	 -9.766	 -0.003	  0.002	  0.001	 33.000	 99.452	 -30.284
68468	  0.875	  0.047	  0.391	  0.295	  0.081	 -9.779	 -0.003	  0.003	  0.001	 33.000	 99.429	 -28.204
68517	  0.876	  0.048	  0.392	  0.273	  0.095	 -9.737	 -0.003	  0.001	  0.000	 33.000	 99.418	 -27.209
68568	  0.873	  0.048	  0.392	  0.304	  0.095	 -9.742	 -0.003	  0.003	  0.000	 33.000	 99.395	 -25.127
68618	  0.875	  0.047	  0.391	  0.303	  0.070	 -9.794	 -0.003	  0.003	  0.001	 33.100	 99.388	 -24.494
68668	  0.873	  0.048	  0.387	  0.288	  0.067	 -9.791	 -0.002	  0.002	  0.000	 33.000	 99.384	 -24.131
68718	  0.873	  0.050	  0.391	  0.298	  0.100	 -9.750	 -0.003	  0.003	  0.000	 33.000	 99.357	 -21.687
68768	  0.872	  0.047	  0.389	  0.280	  0.074	 -9.761	 -0.002	  0.003	  0.000	 33.000	 99.361	 -22.050
68818	  0.875	  0.044	  0.393	  0.279	  0.053	 -9.756	 -0.004	  0.001	  0.000	 33.000	 99.339	 -20.056
68868	  0.872	  0.052	  0.393	  0.296	  0.085	 -9.749	 -0.004	  0.003	  0.001	 33.000	 99.339	 -20.056
68918	  0.874	  0.047	  0.391	  0.316	  0.079	 -9.820	 -0.003	  0.003	  0.001	 33.000	 99.312	 -17.611
68968	  0.875	  0.046	  0.394	  0.289	  0.047	 -9.759	 -0.002	  0.003	 -0.000	 33.000	 99.316	 -17.974
69018	  0.874	  0.048	  0.387	  0.270	  0.059	 -9.723	 -0.004	  0.001	 -0.000	 33.000	 99.305	 -16.977
69068	  0.874	  0.045	  0.393	  0.287	  0.048	 -9.758	 -0.004	  0.003	  0.001	 33.000	 99.305	 -16.977
69118	  0.871	  0.049	  0.385	  0.321	  0.067	 -9.759	 -0.003	  0.002	  0.000	 33.000	 99.293	 -15.890
69168	  0.875	  0.049	  0.391	  0.290	  0.070	 -9.742	 -0.003	  0.001	  0.001	 33.000	 99.278	 -14.530
69218	  0.873	  0.048	  0.389	  0.270	  0.077	 -9.776	 -0.003	  0.002	  0.000	 33.000	 99.271	 -13.896
69268	  0.872	  0.043	  0.390	  0.284	  0.088	 -9.753	 -0.002	 -0.000	  0.001	 33.000	 99.271	 -13.896
69318	  0.875	  0.050	  0.392	  0.286	  0.077	 -9.746	 -0.003	  0.005	  0.001	 33.000	 99.259	 -12.808
69368	  0.878	  0.049	  0.392	  0.278	  0.061	 -9.754	 -0.004	  0.001	  0.002	 33.000	 99.244	 -11.449
69418	  0.873	  0.051	  0.391	  0.282	  0.068	 -9.733	 -0.003	  0.002	  0.001	 33.100	 99.248	 -11.811
69468	  0.872	  0.048	  0.391	  0.304	  0.074	 -9.757	 -0.002	  0.002	  0.001	 33.000	 99.248	 -11.811
69518	  0.873	  0.047	  0.390	  0.295	  0.067	 -9.787	 -0.002	  0.002	  0.000	 33.000	 99.248	 -11.811
69568	  0.874	  0.049	  0.392	  0.273	  0.074	 -9.773	 -0.003	  0.004	  0.000	 33.000	 99.225	 -9.725
69618	  0.874	  0.048	  0.394	  0.303	  0.097	 -9.731	 -0.003	  0.002	  0.000	 33.000	 99.225	 -9.725
69668	  0.874	  0.049	  0.390	  0.295	  0.063	 -9.749	 -0.003	  0.002	  0.000	 33.000	 99.225	 -9.725
69718	  0.876	  0.054	  0.393	  0.274	  0.082	 -9.762	 -0.003	  0.002	 -0.001	 33.000	 99.225	 -9.725
69768	  0.875	  0.049	  0.391	  0.317	  0.073	 -9.742	 -0.002	  0.002	  0.001	 33.000	 99.214	 -8.727
69818	  0.874	  0.048	  0.391	  0.293	  0.076	 -9.747	 -0.003	  0.001	 -0.001	 33.000	 99.225	 -9.725
69868	  0.874	  0.048	  0.390	  0.305	  0.076	 -9.745	 -0.004	  0.003	 -0.000	 33.100	 99.225	 -9.725
69918	  0.873	  0.055	  0.394	  0.277	  0.092	 -9.761	 -0.003	  0.002	  0.000	 33.000	 99.214	 -8.727
69968	  0.873	  0.052	  0.392	  0.302	  0.075	 -9.728	 -0.004	  0.005	  0.002	 33.000	 99.214	 -8.727
70018	  0.875	  0.050	  0.393	  0.292	  0.103	 -9.749	 -0.002	  0.003	  0.001	 33.000	 99.225	 -9.725
70068	  0.874	  0.046	  0.394	  0.288	  0.064	 -9.781	 -0.003	  0.002	  0.001	 33.000	 99.214	 -8.727
70118	  0.874	  0.050	  0.390	  0.296	  0.097	 -9.742	 -0.004	  0.003	  0.000	 33.000	 99.214	 -8.727
70168	  0.877	  0.051	  0.385	  0.281	  0.062	 -9.748	 -0.003	  0.001	  0.001	 33.000	 99.203	 -7.730
70218	  0.876	  0.052	  0.389	  0.279	  0.040	 -9.667	 -0.003	  0.003	  0.000	 33.000	 99.214	 -8.727
70268	  0.874	  0.048	  0.392	  0.269	  0.096	 -9.691	 -0.004	  0.004	 -0.000	 33.000	 99.225	 -9.725
70318	  0.874	  0.050	  0.389	  0.304	  0.064	 -9.694	 -0.003	  0.002	  0.000	 33.000	 99.214	 -8.727
70368	  0.875	  0.046	  0.394	  0.290	  0.076	 -9.762	 -0.002	  0.004	  0.000	 33.000	 99.210	 -8.365
70418	  0.873	  0.048	  0.390	  0.290	  0.062	 -9.760	 -0.004	  0.002	  0.000	 33.000	 99.225	 -9.725
70468	  0.873	  0.052	  0.394	  0.284	  0.086	 -9.726	 -0.004	  0.003	  0.002	 33.000	 99.225	 -9.725
70518	  0.876	  0.048	  0.393	  0.288	  0.061	 -9.773	 -0.003	  0.003	 -0.000	 33.000	 99.237	 -10.813
70567	  0.873	  0.046	  0.390	  0.292	  0.086	 -9.745	 -0.003	  0.005	  0.000	 33.000	 99.214	 -8.727
70617	  0.874	  0.050	  0.391	  0.268	  0.069	 -9.759	 -0.003	  0.003	  0.000	 33.000	 99.210	 -8.365
70667	  0.872	  0.046	  0.390	  0.283	  0.068	 -9.756	 -0.003	  0.002	  0.001	 33.000	 99.225	 -9.725
70717	  0.874	  0.051	  0.394	  0.294	  0.061	 -9.747	 -0.003	  0.001	  0.000	 33.000	 99.225	 -9.725
70767	  0.874	  0.050	  0.390	  0.273	  0.065	 -9.777	 -0.004	  0.002	  0.001	 33.000	 99.237	 -10.813
70817	  0.875	  0.048	  0.391	  0.288	  0.062	 -9.755	 -0.004	  0.001	  0.001	 33.000	 99.237	 -10.813
70867	  0.873	  0.055	  0.394	  0.315	  0.056	 -9.745	 -0.004	  0.002	 -0.000	 33.000	 99.237	 -10.813
70917	  0.875	  0.049	  0.391	  0.261	  0.068	 -9.777	 -0.005	  0.002	  0.001	 33.000	 99.237	 -10.813
70967	  0.875	  0.051	  0.393	  0.302	  0.092	 -9.770	 -0.003	  0.003	  0.001	 33.000	 99.225	 -9.725
71017	  0.874	  0.049	  0.391	  0.272	  0.084	 -9.735	 -0.003	  0.001	 -0.001	 33.000	 99.237	 -10.813
71067	  0.874	  0.053	  0.392	  0.290	  0.080	 -9.768	 -0.004	  0.002	  0.000	 33.000	 99.221	 -9.362
71117	  0.874	  0.049	  0.387	  0.276	  0.081	 -9.761	 -0.003	  0.003	  0.001	 33.000	 99.237	 -10.813
71167	  0.870	  0.049	  0.396	  0.281	  0.057	 -9.765	 -0.004	  0.001	  0.001	 33.000	 99.237	 -10.813
71217	  0.873	  0.049	  0.393	  0.269	  0.066	 -9.748	 -0.003	  0.001	 -0.000	 33.000	 99.225	 -9.725
71267	  0.872	  0.046	  0.392	  0.278	  0.092	 -9.748	 -0.004	  0.002	  0.000	 33.100	 99.225	 -9.725
71317	  0.872	  0.050	  0.390	  0.262	  0.078	 -9.773	 -0.003	  0.002	  0.001	 33.000	 99.225	 -9.725
71367	  0.875	  0.054	  0.393	  0.281	  0.062	 -9.795	 -0.003	  0.001	  0.001	 33.100	 99.214	 -8.727
71417	  0.875	  0.049	  0.393	  0.290	  0.080	 -9.738	 -0.003	  0.002	  0.000	 33.000	 99.203	 -7.730
71467	  0.874	  0.047	  0.391	  0.303	  0.068	 -9.744	 -0.002	  0.001	  0.000	 33.000	 99.214	 -8.727
71517	  0.875	  0.048	  0.392	  0.275	  0.062	 -9.754	 -0.004	  0.003	  0.000	 33.000	 99.203	 -7.730
71567	  0.874	  0.047	  0.391	  0.296	  0.073	 -9.747	 -0.003	  0.001	  0.001	 33.000	 99.187	 -6.278
71617	  0.873	  0.050	  0.391	  0.272	  0.054	 -9.782	 -0.003	  0.001	  0.000	 33.000	 99.203	 -7.730
71667	  0.876	  0.047	  0.392	  0.292	  0.072	 -9.702	 -0.003	  0.002	  0.000	 33.000	 99.191	 -6.641
71717	  0.875	  0.050	  0.394	  0.284	  0.075	 -9.737	 -0.003	  0.003	  0.002	 33.000	 99.198	 -7.276
71767	  0.876	  0.051	  0.393	  0.269	  0.044	 -9.745	 -0.003	  0.002	  0.000	 33.000	 99.180	 -5.643
71817	  0.873	  0.050	  0.392	  0.281	  0.085	 -9.724	 -0.003	  0.002	  0.001	 33.000	 99.203	 -7.730
71867	  0.876	  0.047	  0.390	  0.275	  0.061	 -9.747	 -0.003	  0.003	  0.000	 33.100	 99.180	 -5.643
71917	  0.875	  0.047	  0.392	  0.258	  0.089	 -9.775	 -0.004	  0.004	  0.001	 33.000	 99.176	 -5.280
71967	  0.876	  0.053	  0.392	  0.287	  0.057	 -9.776	 -0.004	  0.003	  0.001	 33.000	 99.180	 -5.643
72017	  0.875	  0.045	  0.389	  0.285	  0.068	 -9.738	 -0.004	  0.003	  0.001	 33.100	 99.191	 -6.641
72067	  0.874	  0.050	  0.390	  0.258	  0.057	 -9.745	 -0.004	  0.002	  0.001	 33.100	 99.180	 -5.643
72117	  0.877	  0.046	  0.394	  0.287	  0.065	 -9.782	 -0.003	  0.003	  0.001	 33.000	 99.164	 -4.191
72167	  0.876	  0.048	  0.392	  0.287	  0.065	 -9.766	 -0.002	  0.001	  0.001	 33.000	 99.180	 -5.643
72217	  0.874	  0.050	  0.392	  0.291	  0.062	 -9.723	 -0.003	  0.001	  0.001	 33.000	 99.180	 -5.643
72267	  0.876	  0.053	  0.392	  0.284	  0.077	 -9.729	 -0.004	  0.002	  0.002	 33.100	 99.169	 -4.645
72317	  0.876	  0.048	  0.393	  0.281	  0.093	 -9.758	 -0.003	  0.004	  0.001	 33.000	 99.157	 -3.555
72367	  0.876	  0.051	  0.396	  0.266	  0.057	 -9.776	 -0.003	  0.002	 -0.001	 33.000	 99.169	 -4.645
72417	  0.875	  0.048	  0.390	  0.293	  0.097	 -9.744	 -0.004	  0.002	  0.001	 33.000	 99.153	 -3.193
72467	  0.875	  0.048	  0.390	  0.277	  0.072	 -9.753	 -0.003	  0.002	  0.001	 33.000	 99.153	 -3.193
72517	  0.874	  0.050	  0.392	  0.294	  0.084	 -9.786	 -0.003	  0.002	 -0.001	 33.000	 99.169	 -4.645
72567	  0.874	  0.047	  0.391	  0.275	  0.069	 -9.774	 -0.003	  0.002	  0.000	 33.000	 99.157	 -3.555
72617	  0.874	  0.050	  0.392	  0.271	  0.081	 -9.743	 -0.005	  0.003	 -0.001	 33.000	 99.153	 -3.193
72667	  0.873	  0.051	  0.393	  0.299	  0.093	 -9.768	 -0.004	  0.001	  0.000	 33.000	 99.146	 -2.558
72717	  0.877	  0.048	  0.391	  0.268	  0.072	 -9.741	 -0.003	  0.003	  0.000	 33.000	 99.157	 -3.555
72767	  0.875	  0.051	  0.394	  0.281	  0.078	 -9.736	 -0.005	  0.002	  0.001	 33.000	 99.146	 -2.558
72817	  0.875	  0.050	  0.391	  0.264	  0.067	 -9.724	 -0.003	  0.002	  0.001	 33.000	 99.146	 -2.558
72867	  0.874	  0.050	  0.391	  0.279	  0.078	 -9.740	 -0.004	  0.002	  0.000	 33.000	 99.153	 -3.193
72917	  0.872	  0.047	  0.391	  0.273	  0.090	 -9.739	 -0.004	  0.001	  0.002	 33.100	 99.157	 -3.555
72967	  0.876	  0.049	  0.388	  0.286	  0.063	 -9.788	 -0.002	  0.003	 -0.000	 33.100	 99.146	 -2.558
73017	  0.873	  0.047	  0.392	  0.300	  0.090	 -9.774	 -0.004	  0.002	  0.000	 33.000	 99.130	 -1.104
73067	  0.875	  0.052	  0.392	  0.260	  0.064	 -9.796	 -0.004	  0.002	 -0.000	 33.000	 99.135	 -1.559
73117	  0.876	  0.049	  0.393	  0.275	  0.088	 -9.752	 -0.002	  0.002	 -0.000	 33.000	 99.146	 -2.558
73167	  0.875	  0.048	  0.390	  0.280	  0.072	 -9.755	 -0.004	  0.002	  0.001	 33.000	 99.157	 -3.555
73217	  0.875	  0.050	  0.391	  0.271	  0.064	 -9.730	 -0.004	  0.004	  0.000	 33.100	 99.135	 -1.559
73267	  0.876	  0.051	  0.388	  0.278	  0.059	 -9.752	 -0.003	  0.002	  0.001	 33.000	 99.078	  3.618
73317	  0.875	  0.046	  0.389	  0.291	  0.067	 -9.769	 -0.003	  0.002	  0.000	 33.000	 99.021	  8.798
73367	  0.874	  0.046	  0.390	  0.282	  0.086	 -9.766	 -0.005	  0.003	  0.001	 33.000	 98.949	 15.348
73417	  0.876	  0.050	  0.393	  0.279	  0.052	 -9.729	 -0.003	  0.002	  0.001	 33.100	 98.863	 23.177
73467	  0.875	  0.048	  0.385	  0.279	  0.063	 -9.742	 -0.003	  0.002	  0.001	 33.000	 98.772	 31.471
73517	  0.877	  0.045	  0.391	  0.276	  0.091	 -9.751	 -0.004	  0.002	  0.001	 33.000	 98.659	 41.782
73567	  0.876	  0.047	  0.394	  0.282	  0.061	 -9.722	 -0.002	  0.001	 -0.000	 33.000	 98.541	 52.564
73618	  0.875	  0.051	  0.390	  0.280	  0.056	 -9.799	 -0.003	  0.003	  0.001	 33.000	 98.394	 66.019
73667	  0.875	  0.051	  0.393	  0.296	  0.042	 -9.768	 -0.003	  0.003	  0.000	 33.100	 98.273	 77.111
73718	  0.876	  0.047	  0.387	  0.272	  0.091	 -9.742	 -0.004	  0.002	  0.001	 33.000	 98.110	 92.080
73767	  0.877	  0.052	  0.392	  0.276	  0.085	 -9.766	 -0.003	  0.003	 -0.000	 33.000	 97.952	 106.617
73817	  0.874	  0.051	  0.390	  0.269	  0.082	 -9.768	 -0.003	  0.003	  0.000	 33.000	 97.759	 124.412
73867	  0.872	  0.047	  0.391	  0.276	  0.070	 -9.770	 -0.004	  0.003	  0.000	 33.000	 97.593	 139.753
73917	  0.874	  0.053	  0.390	  0.291	  0.056	 -9.788	 -0.005	  0.003	 -0.000	 33.000	 97.389	 158.647
73967	  0.877	  0.050	  0.392	  0.268	  0.069	 -9.748	 -0.003	  0.001	  0.000	 33.000	 97.208	 175.450
74017	  0.873	  0.049	  0.390	  0.298	  0.068	 -9.713	 -0.003	  0.002	  0.001	 33.000	 97.026	 192.383
74068	  0.875	  0.050	  0.391	  0.281	  0.075	 -9.772	 -0.003	  0.001	  0.000	 33.000	 96.845	 209.261
74117	  0.873	  0.047	  0.392	  0.287	  0.065	 -9.750	 -0.003	  0.003	 -0.000	 33.000	 96.652	 227.301
74168	  0.876	  0.047	  0.390	  0.298	  0.076	 -9.762	 -0.003	  0.002	  0.000	 33.000	 96.478	 243.600
74218	  0.874	  0.048	  0.392	  0.309	  0.089	 -9.753	 -0.004	  0.002	  0.002	 33.000	 96.312	 259.183
74268	  0.874	  0.048	  0.386	  0.279	  0.095	 -9.765	 -0.003	  0.003	 -0.001	 33.000	 96.120	 277.246
74318	  0.874	  0.046	  0.389	  0.282	  0.086	 -9.774	 -0.004	  0.003	  0.000	 33.000	 95.961	 292.238
74368	  0.876	  0.049	  0.392	  0.298	  0.059	 -9.772	 -0.003	  0.003	 -0.000	 33.000	 95.776	 309.718
74418	  0.875	  0.048	  0.391	  0.285	  0.059	 -9.765	 -0.003	  0.003	  0.000	 33.000	 95.610	 325.437
74468	  0.875	  0.045	  0.393	  0.280	  0.066	 -9.777	 -0.004	  0.004	  0.000	 33.000	 95.447	 340.904
74518	  0.875	  0.048	  0.394	  0.296	  0.071	 -9.727	 -0.003	  0.004	  0.001	 33.000	 95.270	 357.735
74568	  0.873	  0.054	  0.392	  0.268	  0.071	 -9.733	 -0.003	  0.001	  0.001	 33.000	 95.111	 372.886
74618	  0.872	  0.048	  0.391	  0.290	  0.085	 -9.748	 -0.004	  0.004	  0.000	 33.000	 94.930	 390.170
74668	  0.876	  0.051	  0.392	  0.285	  0.077	 -9.750	 -0.002	  0.003	  0.001	 33.000	 94.782	 404.332
74718	  0.874	  0.048	  0.389	  0.258	  0.067	 -9.759	 -0.004	  0.002	  0.001	 33.000	 94.590	 422.744
74768	  0.877	  0.056	  0.391	  0.250	  0.072	 -9.751	 -0.003	  0.002	  0.000	 33.000	 94.431	 438.025
74818	  0.877	  0.048	  0.391	  0.309	  0.067	 -9.771	 -0.003	  0.004	  0.001	 33.000	 94.261	 454.397
74868	  0.877	  0.052	  0.393	  0.277	  0.083	 -9.741	 -0.005	  0.003	  0.001	 33.000	 94.102	 469.742
74918	  0.873	  0.050	  0.392	  0.243	  0.064	 -9.768	 -0.003	  0.003	  0.001	 33.000	 93.921	 487.247
74968	  0.873	  0.048	  0.393	  0.299	  0.060	 -9.753	 -0.004	  0.003	  0.001	 33.000	 93.762	 502.657
75018	  0.876	  0.049	  0.392	  0.262	  0.060	 -9.755	 -0.005	  0.003	  0.001	 33.000	 93.581	 520.238
75068	  0.873	  0.047	  0.390	  0.268	  0.067	 -9.762	 -0.006	  0.002	 -0.001	 33.000	 93.422	 535.716
75118	  0.872	  0.046	  0.394	  0.289	  0.049	 -9.781	 -0.004	  0.003	  0.000	 33.000	 93.263	 551.225
75168	  0.871	  0.048	  0.387	  0.276	  0.078	 -9.723	 -0.003	  0.003	  0.001	 33.000	 93.093	 567.842
75218	  0.876	  0.047	  0.390	  0.277	  0.066	 -9.769	 -0.003	  0.004	 -0.000	 33.000	 92.912	 585.574
75268	  0.874	  0.053	  0.389	  0.296	  0.086	 -9.737	 -0.003	  0.002	  0.001	 33.100	 92.742	 602.266
75318	  0.874	  0.052	  0.391	  0.295	  0.070	 -9.751	 -0.004	  0.004	  0.000	 33.000	 92.572	 618.994
75368	  0.876	  0.049	  0.389	  0.288	  0.086	 -9.766	 -0.004	  0.001	  0.002	 33.100	 92.402	 635.758
75418	  0.873	  0.044	  0.386	  0.298	  0.078	 -9.769	 -0.004	  0.003	  0.001	 33.000	 92.232	 652.560
75468	  0.875	  0.048	  0.391	  0.288	  0.069	 -9.772	 -0.003	  0.002	 -0.000	 33.000	 92.062	 669.398
75518	  0.877	  0.047	  0.392	  0.300	  0.093	 -9.756	 -0.003	  0.003	  0.001	 33.000	 91.892	 686.274
75568	  0.876	  0.054	  0.393	  0.280	  0.068	 -9.783	 -0.003	  0.003	 -0.000	 33.000	 91.733	 702.091
75618	  0.875	  0.050	  0.393	  0.278	  0.058	 -9.779	 -0.004	  0.002	  0.001	 33.000	 91.552	 720.137
75668	  0.876	  0.050	  0.392	  0.274	  0.074	 -9.729	 -0.004	  0.002	 -0.000	 33.000	 91.393	 736.025
75718	  0.874	  0.052	  0.392	  0.292	  0.074	 -9.758	 -0.004	  0.003	  0.001	 33.000	 91.223	 753.047
75768	  0.873	  0.046	  0.390	  0.277	  0.067	 -9.748	 -0.003	  0.003	 -0.000	 33.000	 91.065	 768.902
75818	  0.874	  0.051	  0.387	  0.287	  0.066	 -9.798	 -0.003	  0.003	  0.001	 33.000	 90.883	 787.206
75868	  0.873	  0.049	  0.394	  0.263	  0.090	 -9.727	 -0.003	  0.004	  0.001	 33.100	 90.736	 802.022
75918	  0.872	  0.053	  0.385	  0.259	  0.070	 -9.746	 -0.003	  0.002	  0.001	 33.000	 90.566	 819.192
75968	  0.874	  0.050	  0.392	  0.292	  0.052	 -9.750	 -0.005	  0.003	 -0.000	 33.000	 90.419	 834.071
76018	  0.874	  0.048	  0.392	  0.268	  0.084	 -9.762	 -0.004	  0.003	  0.001	 33.000	 90.222	 854.055
76068	  0.877	  0.051	  0.391	  0.264	  0.064	 -9.746	 -0.003	  0.003	  0.000	 33.000	 90.079	 868.592
76118	  0.873	  0.047	  0.391	  0.287	  0.094	 -9.752	 -0.004	  0.003	  0.001	 33.000	 89.909	 885.913
76168	  0.874	  0.048	  0.393	  0.275	  0.088	 -9.781	 -0.004	  0.003	  0.000	 33.000	 89.750	 902.146
76218	  0.875	  0.047	  0.390	  0.282	  0.055	 -9.789	 -0.004	  0.003	  0.001	 33.000	 89.591	 918.415
76268	  0.875	  0.049	  0.394	  0.310	  0.067	 -9.763	 -0.003	  0.003	 -0.002	 33.000	 89.429	 935.025
76318	  0.877	  0.050	  0.391	  0.285	  0.077	 -9.758	 -0.004	  0.001	  0.001	 33.000	 89.274	 950.952
76368	  0.873	  0.048	  0.389	  0.303	  0.069	 -9.769	 -0.004	  0.004	 -0.000	 33.000	 89.104	 968.458
76418	  0.874	  0.048	  0.394	  0.281	  0.081	 -9.763	 -0.003	  0.003	  0.000	 33.000	 88.964	 982.904
