Time	 MagX	 MagY	 MagZ	 AccelX	 AccelY	 AccelZ	 Yaw	 Pitch	 Roll	 Temperature	 Pressure	 Altitude
15299	 -0.463	  0.457	  0.249	  9.672	 -0.639	 -1.193	 -0.003	  0.003	  0.001	 33.300	 99.116	 -99999.000
15349	 -0.464	  0.453	  0.255	  9.658	 -0.648	 -1.228	 -0.004	  0.001	  0.001	 33.300	 99.116	 -99999.000
15399	 -0.466	  0.457	  0.248	  9.657	 -0.650	 -1.229	 -0.004	  0.003	  0.001	 33.300	 99.128	 -99999.000
15449	 -0.463	  0.457	  0.254	  9.667	 -0.661	 -1.220	 -0.004	  0.000	  0.000	 33.300	 99.128	 -99999.000
15499	 -0.465	  0.456	  0.250	  9.657	 -0.655	 -1.240	 -0.004	  0.004	  0.001	 33.300	 99.128	 -99999.000
15549	 -0.465	  0.457	  0.249	  9.676	 -0.655	 -1.208	 -0.003	  0.003	  0.000	 33.300	 99.128	 -99999.000
15599	 -0.464	  0.455	  0.250	  9.711	 -0.662	 -1.231	 -0.004	  0.002	  0.001	 33.300	 99.132	 -99999.000
15649	 -0.462	  0.461	  0.250	  9.697	 -0.647	 -1.216	 -0.004	  0.002	  0.001	 33.300	 99.128	 -99999.000
15699	 -0.464	  0.458	  0.252	  9.672	 -0.690	 -1.208	 -0.003	  0.002	 -0.000	 33.300	 99.139	 -99999.000
15749	 -0.463	  0.457	  0.251	  9.691	 -0.654	 -1.202	 -0.003	  0.003	 -0.000	 33.300	 99.128	 -99999.000
15799	 -0.465	  0.458	  0.250	  9.652	 -0.652	 -1.222	 -0.003	  0.002	 -0.000	 33.300	 99.128	 -99999.000
15849	 -0.464	  0.461	  0.247	  9.671	 -0.648	 -1.192	 -0.004	  0.002	  0.001	 33.300	 99.128	 -99999.000
15899	 -0.464	  0.459	  0.249	  9.670	 -0.648	 -1.240	 -0.004	  0.002	 -0.001	 33.300	 99.128	 -99999.000
15949	 -0.464	  0.456	  0.248	  9.675	 -0.630	 -1.204	 -0.003	  0.003	  0.000	 33.300	 99.132	 -99999.000
15999	 -0.463	  0.459	  0.252	  9.695	 -0.646	 -1.267	 -0.003	  0.003	  0.001	 33.300	 99.128	 -99999.000
16049	 -0.463	  0.458	  0.250	  9.672	 -0.665	 -1.236	 -0.004	  0.002	  0.000	 33.300	 99.116	 -99999.000
16099	 -0.465	  0.456	  0.254	  9.649	 -0.639	 -1.223	 -0.004	  0.004	  0.000	 33.300	 99.132	 -99999.000
16149	 -0.462	  0.456	  0.252	  9.684	 -0.667	 -1.244	 -0.004	  0.002	  0.000	 33.300	 99.132	 -99999.000
16199	 -0.464	  0.456	  0.250	  9.685	 -0.681	 -1.249	 -0.003	  0.002	  0.001	 33.300	 99.116	 -99999.000
16249	 -0.466	  0.455	  0.250	  9.650	 -0.655	 -1.238	 -0.004	  0.003	  0.001	 33.300	 99.128	 -99999.000
16298	 -0.462	  0.458	  0.251	  9.671	 -0.675	 -1.238	 -0.003	  0.002	  0.000	 33.300	 99.128	 -99999.000
16348	 -0.463	  0.464	  0.249	  9.691	 -0.647	 -1.256	 -0.004	  0.003	  0.001	 33.300	 99.128	 -99999.000
16398	 -0.464	  0.465	  0.250	  9.681	 -0.649	 -1.248	 -0.004	  0.003	  0.001	 33.300	 99.128	 -99999.000
16448	 -0.463	  0.456	  0.253	  9.677	 -0.670	 -1.251	 -0.003	  0.003	  0.000	 33.300	 99.128	 -99999.000
16498	 -0.466	  0.462	  0.252	  9.657	 -0.654	 -1.228	 -0.003	  0.003	  0.000	 33.300	 99.128	 -99999.000
16548	 -0.465	  0.457	  0.248	  9.683	 -0.668	 -1.222	 -0.002	  0.003	  0.001	 33.300	 99.132	 -99999.000
16598	 -0.462	  0.459	  0.255	  9.664	 -0.645	 -1.228	 -0.003	  0.002	  0.001	 33.300	 99.128	 -99999.000
16649	 -0.464	  0.459	  0.251	  9.672	 -0.623	 -1.230	 -0.003	  0.002	  0.001	 33.300	 99.139	 -99999.000
16698	 -0.464	  0.468	  0.252	  9.697	 -0.666	 -1.235	 -0.003	  0.002	  0.001	 33.300	 99.128	 -99999.000
16748	 -0.465	  0.461	  0.249	  9.669	 -0.650	 -1.221	 -0.003	  0.002	  0.001	 33.300	 99.116	 -99999.000
16798	 -0.463	  0.463	  0.251	  9.688	 -0.660	 -1.242	 -0.002	  0.003	 -0.000	 33.300	 99.139	 -99999.000
16848	 -0.465	  0.457	  0.244	  9.678	 -0.642	 -1.231	 -0.003	  0.002	  0.001	 33.300	 99.128	 -99999.000
16898	 -0.462	  0.459	  0.255	  9.691	 -0.643	 -1.217	 -0.003	  0.002	  0.001	 33.300	 99.128	 -99999.000
16948	 -0.466	  0.458	  0.249	  9.666	 -0.621	 -1.250	 -0.003	  0.002	  0.000	 33.300	 99.132	 -99999.000
16999	 -0.462	  0.458	  0.251	  9.671	 -0.640	 -1.197	 -0.003	  0.002	 -0.000	 33.300	 99.128	 -99999.000
17048	 -0.466	  0.456	  0.254	  9.689	 -0.651	 -1.222	 -0.004	  0.001	  0.001	 33.300	 99.128	 -99999.000
17099	 -0.464	  0.460	  0.250	  9.694	 -0.659	 -1.225	 -0.003	  0.004	  0.001	 33.300	 99.132	 -99999.000
17148	 -0.464	  0.458	  0.249	  9.698	 -0.653	 -1.223	 -0.002	  0.003	  0.001	 33.300	 99.128	 -99999.000
17198	 -0.465	  0.457	  0.254	  9.654	 -0.664	 -1.231	 -0.003	  0.003	  0.000	 33.300	 99.132	 -99999.000
17248	 -0.464	  0.458	  0.251	  9.666	 -0.668	 -1.236	 -0.003	  0.002	  0.000	 33.300	 99.132	 -99999.000
17298	 -0.463	  0.459	  0.252	  9.681	 -0.644	 -1.200	 -0.004	  0.003	 -0.000	 33.300	 99.128	 -99999.000
17349	 -0.463	  0.458	  0.248	  9.670	 -0.642	 -1.196	 -0.003	  0.003	 -0.001	 33.300	 99.128	 -99999.000
17399	 -0.463	  0.459	  0.252	  9.682	 -0.666	 -1.196	 -0.002	  0.002	 -0.001	 33.300	 99.128	 -99999.000
17449	 -0.465	  0.456	  0.250	  9.688	 -0.667	 -1.222	 -0.003	  0.003	  0.001	 33.300	 99.128	 -99999.000
17499	 -0.464	  0.458	  0.252	  9.695	 -0.657	 -1.231	 -0.003	  0.001	 -0.001	 33.300	 99.128	 -99999.000
17549	 -0.463	  0.459	  0.249	  9.690	 -0.669	 -1.214	 -0.005	  0.001	  0.001	 33.300	 99.128	 -99999.000
17599	 -0.463	  0.458	  0.251	  9.677	 -0.649	 -1.250	 -0.003	  0.002	  0.000	 33.300	 99.132	 -99999.000
17649	 -0.464	  0.457	  0.250	  9.673	 -0.662	 -1.243	 -0.004	  0.004	  0.002	 33.300	 99.128	 -99999.000
17699	 -0.464	  0.456	  0.250	  9.705	 -0.688	 -1.246	 -0.003	  0.001	  0.000	 33.300	 99.116	 -99999.000
17749	 -0.466	  0.455	  0.248	  9.695	 -0.658	 -1.258	 -0.004	  0.003	  0.001	 33.300	 99.128	 -99999.000
17799	 -0.465	  0.465	  0.249	  9.680	 -0.657	 -1.234	 -0.003	  0.004	  0.000	 33.300	 99.116	 -99999.000
17849	 -0.464	  0.455	  0.248	  9.697	 -0.652	 -1.223	 -0.003	  0.004	 -0.000	 33.300	 99.121	 -99999.000
17899	 -0.464	  0.459	  0.246	  9.685	 -0.645	 -1.215	 -0.004	  0.002	 -0.000	 33.300	 99.132	 -99999.000
17949	 -0.464	  0.458	  0.252	  9.694	 -0.653	 -1.218	 -0.003	  0.002	  0.001	 33.300	 99.132	 -99999.000
17999	 -0.465	  0.464	  0.250	  9.675	 -0.686	 -1.235	 -0.003	  0.002	  0.000	 33.300	 99.139	 -99999.000
18049	 -0.465	  0.458	  0.248	  9.694	 -0.656	 -1.233	 -0.003	  0.002	 -0.001	 33.300	 99.128	 -99999.000
18099	 -0.464	  0.456	  0.251	  9.680	 -0.655	 -1.213	 -0.002	  0.003	  0.000	 33.300	 99.116	 -99999.000
18149	 -0.463	  0.459	  0.254	  9.666	 -0.667	 -1.251	 -0.004	  0.002	  0.001	 33.300	 99.116	 -99999.000
18199	 -0.464	  0.459	  0.250	  9.686	 -0.656	 -1.227	 -0.005	  0.002	  0.001	 33.300	 99.128	 -99999.000
18249	 -0.463	  0.461	  0.251	  9.692	 -0.649	 -1.212	 -0.004	  0.002	  0.001	 33.300	 99.132	 -99999.000
18299	 -0.465	  0.457	  0.251	  9.687	 -0.640	 -1.201	 -0.005	  0.003	 -0.000	 33.300	 99.139	 -99999.000
18349	 -0.467	  0.459	  0.241	  9.672	 -0.676	 -1.249	 -0.003	  0.003	  0.000	 33.300	 99.121	 -99999.000
18399	 -0.465	  0.457	  0.250	  9.663	 -0.655	 -1.226	 -0.004	  0.003	  0.001	 33.300	 99.128	 -99999.000
18449	 -0.464	  0.461	  0.249	  9.672	 -0.652	 -1.212	 -0.004	  0.002	  0.000	 33.300	 99.128	 -99999.000
18499	 -0.465	  0.455	  0.248	  9.687	 -0.642	 -1.226	 -0.004	  0.001	 -0.000	 33.300	 99.128	 -99999.000
18549	 -0.465	  0.458	  0.247	  9.667	 -0.652	 -1.218	 -0.003	  0.002	  0.001	 33.300	 99.128	 -99999.000
18599	 -0.463	  0.462	  0.251	  9.694	 -0.668	 -1.231	 -0.004	  0.003	 -0.000	 33.300	 99.128	 -99999.000
18649	 -0.466	  0.457	  0.249	  9.671	 -0.661	 -1.228	 -0.004	  0.003	  0.001	 33.300	 99.128	 -99999.000
18699	 -0.465	  0.459	  0.250	  9.668	 -0.674	 -1.226	 -0.003	  0.002	  0.001	 33.300	 99.121	 -99999.000
18749	 -0.466	  0.456	  0.252	  9.685	 -0.623	 -1.267	 -0.004	  0.002	 -0.000	 33.300	 99.132	 -99999.000
18799	 -0.465	  0.460	  0.248	  9.681	 -0.669	 -1.260	 -0.004	  0.003	  0.000	 33.300	 99.128	 -99999.000
18849	 -0.464	  0.458	  0.248	  9.680	 -0.671	 -1.263	 -0.003	  0.002	 -0.000	 33.300	 99.121	 -99999.000
18899	 -0.464	  0.463	  0.252	  9.678	 -0.656	 -1.206	 -0.004	  0.002	 -0.001	 33.300	 99.128	 -99999.000
18949	 -0.465	  0.454	  0.248	  9.676	 -0.683	 -1.248	 -0.003	  0.003	 -0.000	 33.300	 99.132	 -99999.000
18999	 -0.465	  0.461	  0.249	  9.685	 -0.648	 -1.249	 -0.003	  0.003	  0.001	 33.300	 99.128	 -99999.000
19049	 -0.465	  0.461	  0.251	  9.694	 -0.689	 -1.229	 -0.003	  0.003	  0.001	 33.300	 99.132	 -99999.000
19099	 -0.462	  0.458	  0.249	  9.664	 -0.663	 -1.223	 -0.003	  0.003	 -0.001	 33.300	 99.116	 -99999.000
19149	 -0.463	  0.457	  0.254	  9.695	 -0.657	 -1.216	 -0.003	  0.003	 -0.001	 33.300	 99.143	 -99999.000
19199	 -0.464	  0.457	  0.248	  9.693	 -0.647	 -1.248	 -0.002	  0.002	  0.001	 33.200	 99.124	 -99999.000
19249	 -0.465	  0.457	  0.249	  9.691	 -0.646	 -1.211	 -0.003	  0.003	  0.001	 33.300	 99.116	 -99999.000
19299	 -0.464	  0.461	  0.250	  9.679	 -0.655	 -1.219	 -0.004	  0.003	  0.001	 33.300	 99.128	 -99999.000
19349	 -0.464	  0.461	  0.251	  9.677	 -0.656	 -1.255	 -0.002	  0.003	  0.001	 33.300	 99.128	 -99999.000
19399	 -0.465	  0.454	  0.247	  9.662	 -0.661	 -1.218	 -0.003	  0.001	 -0.000	 33.300	 99.116	 -99999.000
19449	 -0.464	  0.460	  0.249	  9.691	 -0.657	 -1.252	 -0.003	  0.002	 -0.000	 33.300	 99.132	 -99999.000
19499	 -0.465	  0.458	  0.250	  9.669	 -0.648	 -1.236	 -0.003	  0.003	 -0.000	 33.300	 99.132	 -99999.000
19549	 -0.464	  0.458	  0.252	  9.680	 -0.656	 -1.240	 -0.002	  0.002	  0.000	 33.300	 99.128	 -99999.000
19599	 -0.463	  0.461	  0.248	  9.678	 -0.668	 -1.245	 -0.003	  0.002	  0.001	 33.300	 99.143	 -99999.000
19649	 -0.463	  0.464	  0.249	  9.674	 -0.648	 -1.227	 -0.004	  0.003	  0.000	 33.300	 99.128	 -99999.000
19699	 -0.464	  0.459	  0.254	  9.682	 -0.642	 -1.219	 -0.004	  0.002	  0.001	 33.300	 99.128	 -99999.000
19749	 -0.465	  0.457	  0.250	  9.674	 -0.662	 -1.216	 -0.003	  0.002	  0.001	 33.300	 99.139	 -99999.000
19799	 -0.464	  0.456	  0.251	  9.685	 -0.661	 -1.242	 -0.003	  0.003	  0.000	 33.300	 99.128	 -99999.000
19849	 -0.463	  0.459	  0.251	  9.687	 -0.670	 -1.193	 -0.003	  0.002	  0.000	 33.300	 99.121	 -99999.000
19899	 -0.462	  0.455	  0.250	  9.700	 -0.658	 -1.244	 -0.003	  0.003	 -0.000	 33.300	 99.128	 -99999.000
19949	 -0.464	  0.458	  0.246	  9.664	 -0.644	 -1.251	 -0.004	  0.003	  0.001	 33.300	 99.116	 -99999.000
19999	 -0.464	  0.461	  0.251	  9.679	 -0.659	 -1.228	 -0.004	  0.003	  0.001	 33.300	 99.128	 -99999.000
20049	 -0.463	  0.457	  0.247	  9.668	 -0.666	 -1.245	 -0.004	  0.002	  0.001	 33.300	 99.128	 -99999.000
20099	 -0.464	  0.455	  0.251	  9.684	 -0.658	 -1.234	 -0.002	  0.002	 -0.001	 33.300	 99.132	 -99999.000
20149	 -0.463	  0.455	  0.250	  9.661	 -0.666	 -1.224	 -0.004	  0.003	 -0.000	 33.300	 99.128	 -99999.000
20199	 -0.463	  0.457	  0.253	  9.678	 -0.640	 -1.198	 -0.004	  0.003	  0.000	 33.300	 99.128	 -99999.000
20249	 -0.463	  0.457	  0.248	  9.683	 -0.660	 -1.227	 -0.003	  0.002	  0.001	 33.300	 99.132	 -99999.000
20299	 -0.465	  0.456	  0.250	  9.678	 -0.664	 -1.224	 -0.004	  0.003	  0.000	 33.300	 99.132	 -99999.000
20349	 -0.466	  0.456	  0.246	  9.681	 -0.647	 -1.239	 -0.003	  0.003	 -0.000	 33.300	 99.128	 -99999.000
20399	 -0.463	  0.458	  0.249	  9.685	 -0.633	 -1.236	 -0.003	  0.003	  0.001	 33.300	 99.132	 -99999.000
20449	 -0.464	  0.458	  0.250	  9.696	 -0.673	 -1.229	 -0.004	  0.002	  0.001	 33.300	 99.116	 -99999.000
20499	 -0.464	  0.456	  0.247	  9.711	 -0.672	 -1.202	 -0.004	  0.003	  0.001	 33.300	 99.116	 -99999.000
20549	 -0.467	  0.455	  0.249	  9.704	 -0.664	 -1.218	 -0.002	  0.002	  0.001	 33.300	 99.128	 -99999.000
20599	 -0.462	  0.455	  0.254	  9.691	 -0.657	 -1.233	 -0.003	  0.002	  0.000	 33.300	 99.128	 -99999.000
20649	 -0.465	  0.457	  0.247	  9.688	 -0.656	 -1.212	 -0.004	  0.002	  0.000	 33.300	 99.121	 -99999.000
20699	 -0.464	  0.457	  0.254	  9.673	 -0.660	 -1.210	 -0.004	  0.002	  0.000	 33.300	 99.132	 -99999.000
20749	 -0.466	  0.455	  0.243	  9.673	 -0.650	 -1.246	 -0.003	  0.003	  0.000	 33.300	 99.128	 -99999.000
20799	 -0.462	  0.457	  0.250	  9.701	 -0.662	 -1.235	 -0.003	  0.002	  0.000	 33.300	 99.128	 -99999.000
20849	 -0.463	  0.457	  0.247	  9.671	 -0.686	 -1.254	 -0.003	  0.003	  0.001	 33.300	 99.128	 -99999.000
20899	 -0.465	  0.454	  0.246	  9.690	 -0.649	 -1.252	 -0.003	  0.002	  0.000	 33.300	 99.139	 -99999.000
20949	 -0.464	  0.461	  0.251	  9.687	 -0.663	 -1.227	 -0.004	  0.002	  0.000	 33.300	 99.128	 -99999.000
20999	 -0.463	  0.459	  0.254	  9.686	 -0.639	 -1.247	 -0.002	  0.002	 -0.001	 33.300	 99.128	 -99999.000
21049	 -0.463	  0.459	  0.252	  9.651	 -0.656	 -1.214	 -0.004	  0.003	 -0.000	 33.300	 99.121	 -99999.000
21099	 -0.464	  0.455	  0.249	  9.659	 -0.648	 -1.232	 -0.003	  0.002	  0.001	 33.300	 99.128	 -99999.000
21149	 -0.463	  0.454	  0.251	  9.698	 -0.676	 -1.235	 -0.002	  0.002	  0.001	 33.300	 99.128	 -99999.000
21198	 -0.464	  0.458	  0.250	  9.667	 -0.639	 -1.219	 -0.003	  0.003	 -0.001	 33.300	 99.132	 -99999.000
21248	 -0.463	  0.457	  0.249	  9.678	 -0.612	 -1.237	 -0.004	  0.003	  0.001	 33.300	 99.128	 -99999.000
25974	 -0.465	  0.456	  0.250	  9.751	 -0.644	 -1.246	  0.001	  0.001	  0.000	 33.300	 99.132	 -0.382
26024	 -0.464	  0.457	  0.256	  9.707	 -0.634	 -1.251	 -0.003	  0.005	  0.000	 33.300	 99.132	 -0.382
26074	 -0.463	  0.454	  0.249	  9.686	 -0.688	 -1.216	 -0.006	  0.003	  0.001	 33.300	 99.128	 -0.018
26124	 -0.464	  0.455	  0.254	  9.693	 -0.651	 -1.260	 -0.004	  0.002	 -0.000	 33.300	 99.132	 -0.382
26174	 -0.462	  0.456	  0.248	  9.657	 -0.671	 -1.182	 -0.004	  0.004	 -0.000	 33.300	 99.132	 -0.382
26224	 -0.464	  0.451	  0.248	  9.691	 -0.650	 -1.239	 -0.004	  0.003	  0.002	 33.300	 99.121	  0.617
26274	 -0.463	  0.453	  0.249	  9.694	 -0.638	 -1.242	 -0.003	  0.002	  0.000	 33.300	 99.128	 -0.018
26324	 -0.464	  0.458	  0.248	  9.678	 -0.640	 -1.238	 -0.003	  0.002	  0.001	 33.300	 99.121	  0.617
26374	 -0.461	  0.458	  0.248	  9.656	 -0.647	 -1.247	 -0.003	  0.002	  0.001	 33.300	 99.116	  1.071
26424	 -0.463	  0.457	  0.252	  9.690	 -0.647	 -1.243	 -0.005	  0.002	  0.001	 33.300	 99.121	  0.617
26474	 -0.463	  0.457	  0.248	  9.702	 -0.666	 -1.230	 -0.004	  0.002	 -0.001	 33.300	 99.116	  1.071
26524	 -0.464	  0.458	  0.246	  9.689	 -0.664	 -1.223	 -0.002	  0.003	  0.001	 33.300	 99.132	 -0.382
26574	 -0.464	  0.458	  0.249	  9.686	 -0.659	 -1.225	 -0.005	  0.003	  0.000	 33.300	 99.128	 -0.018
26624	 -0.463	  0.458	  0.248	  9.679	 -0.673	 -1.258	 -0.002	  0.002	  0.001	 33.300	 99.128	 -0.018
26674	 -0.462	  0.458	  0.250	  9.685	 -0.642	 -1.222	 -0.004	  0.004	  0.000	 33.300	 99.132	 -0.382
26724	 -0.462	  0.455	  0.248	  9.694	 -0.655	 -1.281	 -0.003	  0.003	  0.000	 33.300	 99.128	 -0.018
26774	 -0.461	  0.455	  0.252	  9.690	 -0.665	 -1.231	 -0.002	  0.005	 -0.001	 33.300	 99.132	 -0.382
26824	 -0.464	  0.453	  0.252	  9.686	 -0.677	 -1.251	 -0.002	  0.001	  0.000	 33.300	 99.128	 -0.018
26875	 -0.462	  0.456	  0.250	  9.681	 -0.670	 -1.244	 -0.003	  0.003	 -0.000	 33.300	 99.132	 -0.382
26924	 -0.465	  0.452	  0.252	  9.696	 -0.646	 -1.209	 -0.003	  0.002	  0.001	 33.300	 99.128	 -0.018
26974	 -0.464	  0.455	  0.247	  9.692	 -0.658	 -1.207	 -0.003	  0.002	  0.000	 33.300	 99.128	 -0.018
27024	 -0.462	  0.454	  0.249	  9.684	 -0.659	 -1.229	 -0.004	  0.003	 -0.001	 33.300	 99.132	 -0.382
27074	 -0.462	  0.457	  0.253	  9.671	 -0.652	 -1.267	 -0.004	  0.003	 -0.000	 33.300	 99.121	  0.617
27124	 -0.464	  0.455	  0.252	  9.673	 -0.651	 -1.232	 -0.003	  0.002	 -0.001	 33.300	 99.121	  0.617
27174	 -0.464	  0.456	  0.248	  9.673	 -0.641	 -1.212	 -0.005	  0.003	  0.001	 33.300	 99.132	 -0.382
27225	 -0.463	  0.458	  0.251	  9.695	 -0.653	 -1.210	 -0.004	  0.003	  0.000	 33.300	 99.132	 -0.382
27274	 -0.465	  0.453	  0.251	  9.680	 -0.665	 -1.216	 -0.003	  0.004	  0.000	 33.300	 99.121	  0.617
27324	 -0.464	  0.455	  0.248	  9.705	 -0.650	 -1.219	 -0.003	  0.003	  0.000	 33.300	 99.132	 -0.382
27374	 -0.461	  0.455	  0.253	  9.687	 -0.639	 -1.211	 -0.004	  0.003	  0.000	 33.300	 99.132	 -0.382
27425	 -0.463	  0.454	  0.249	  9.690	 -0.652	 -1.270	 -0.003	  0.002	 -0.001	 33.300	 99.132	 -0.382
27474	 -0.464	  0.458	  0.249	  9.697	 -0.633	 -1.249	 -0.003	  0.002	  0.000	 33.300	 99.121	  0.617
27525	 -0.461	  0.455	  0.249	  9.680	 -0.680	 -1.238	 -0.003	  0.004	 -0.000	 33.300	 99.132	 -0.382
27575	 -0.463	  0.456	  0.251	  9.679	 -0.655	 -1.225	 -0.003	  0.003	  0.000	 33.300	 99.116	  1.071
27624	 -0.465	  0.459	  0.251	  9.684	 -0.655	 -1.231	 -0.004	  0.004	  0.001	 33.300	 99.132	 -0.382
27674	 -0.463	  0.457	  0.249	  9.668	 -0.658	 -1.216	 -0.003	  0.002	  0.001	 33.300	 99.143	 -1.378
27725	 -0.462	  0.457	  0.250	  9.703	 -0.647	 -1.192	 -0.004	  0.002	  0.001	 33.300	 99.109	  1.706
27775	 -0.462	  0.459	  0.250	  9.709	 -0.655	 -1.238	 -0.004	  0.002	  0.001	 33.300	 99.121	  0.617
27825	 -0.462	  0.457	  0.249	  9.657	 -0.667	 -1.253	 -0.004	  0.003	  0.000	 33.300	 99.116	  1.071
27875	 -0.462	  0.457	  0.254	  9.697	 -0.651	 -1.261	 -0.004	  0.003	  0.000	 33.300	 99.128	 -0.018
27924	 -0.463	  0.456	  0.248	  9.696	 -0.667	 -1.220	 -0.002	  0.003	 -0.000	 33.300	 99.132	 -0.382
27974	 -0.463	  0.458	  0.251	  9.682	 -0.668	 -1.250	 -0.004	  0.003	 -0.000	 33.300	 99.128	 -0.018
28025	 -0.464	  0.458	  0.248	  9.678	 -0.640	 -1.224	 -0.003	  0.002	  0.001	 33.300	 99.121	  0.617
28074	 -0.462	  0.454	  0.250	  9.674	 -0.646	 -1.234	 -0.004	  0.001	  0.001	 33.300	 99.121	  0.617
28124	 -0.464	  0.458	  0.243	  9.701	 -0.646	 -1.232	 -0.003	  0.002	 -0.000	 33.300	 99.128	 -0.018
28174	 -0.462	  0.455	  0.250	  9.676	 -0.660	 -1.263	 -0.003	  0.003	  0.001	 33.300	 99.132	 -0.382
28224	 -0.463	  0.459	  0.250	  9.668	 -0.656	 -1.220	 -0.004	  0.004	  0.001	 33.300	 99.132	 -0.382
28274	 -0.463	  0.455	  0.251	  9.685	 -0.652	 -1.243	 -0.005	  0.002	  0.000	 33.300	 99.128	 -0.018
28324	 -0.465	  0.456	  0.248	  9.676	 -0.665	 -1.228	 -0.003	  0.002	  0.000	 33.300	 99.121	  0.617
28374	 -0.466	  0.454	  0.249	  9.683	 -0.647	 -1.239	 -0.003	  0.001	 -0.000	 33.300	 99.128	 -0.018
28424	 -0.464	  0.456	  0.250	  9.677	 -0.650	 -1.218	 -0.004	  0.003	  0.001	 33.300	 99.132	 -0.382
28474	 -0.462	  0.468	  0.251	  9.688	 -0.665	 -1.204	 -0.003	  0.003	  0.001	 33.300	 99.128	 -0.018
28524	 -0.462	  0.455	  0.250	  9.684	 -0.673	 -1.239	 -0.005	  0.004	  0.001	 33.300	 99.132	 -0.382
28574	 -0.462	  0.460	  0.247	  9.685	 -0.663	 -1.215	 -0.003	  0.003	  0.001	 33.300	 99.132	 -0.382
28624	 -0.464	  0.458	  0.250	  9.697	 -0.658	 -1.234	 -0.004	  0.002	  0.000	 33.300	 99.132	 -0.382
28674	 -0.463	  0.457	  0.249	  9.673	 -0.655	 -1.239	 -0.003	  0.003	  0.001	 33.300	 99.132	 -0.382
28724	 -0.462	  0.455	  0.252	  9.665	 -0.661	 -1.206	 -0.004	  0.004	  0.002	 33.300	 99.128	 -0.018
28774	 -0.463	  0.455	  0.253	  9.687	 -0.654	 -1.225	 -0.004	  0.003	 -0.000	 33.300	 99.143	 -1.378
28824	 -0.464	  0.461	  0.250	  9.690	 -0.658	 -1.207	 -0.002	  0.003	 -0.001	 33.300	 99.132	 -0.382
28874	 -0.463	  0.457	  0.250	  9.675	 -0.638	 -1.200	 -0.003	  0.003	  0.001	 33.300	 99.121	  0.617
28924	 -0.462	  0.459	  0.250	  9.694	 -0.658	 -1.230	 -0.003	  0.002	  0.001	 33.300	 99.121	  0.617
28974	 -0.463	  0.458	  0.251	  9.686	 -0.657	 -1.231	 -0.002	  0.003	 -0.001	 33.300	 99.121	  0.617
29024	 -0.463	  0.457	  0.249	  9.687	 -0.668	 -1.241	 -0.004	  0.002	  0.001	 33.300	 99.132	 -0.382
29074	 -0.462	  0.457	  0.248	  9.650	 -0.648	 -1.235	 -0.003	  0.002	  0.001	 33.300	 99.116	  1.071
29124	 -0.464	  0.455	  0.250	  9.690	 -0.658	 -1.273	 -0.003	  0.001	  0.001	 33.300	 99.121	  0.617
29174	 -0.464	  0.452	  0.249	  9.684	 -0.674	 -1.237	 -0.004	  0.003	  0.000	 33.300	 99.128	 -0.018
29224	 -0.465	  0.460	  0.250	  9.674	 -0.659	 -1.177	 -0.004	  0.004	  0.001	 33.300	 99.132	 -0.382
29274	 -0.465	  0.455	  0.251	  9.684	 -0.648	 -1.196	 -0.004	  0.003	  0.000	 33.300	 99.132	 -0.382
29324	 -0.461	  0.457	  0.249	  9.656	 -0.663	 -1.241	 -0.004	  0.002	  0.000	 33.300	 99.116	  1.071
29374	 -0.462	  0.459	  0.253	  9.678	 -0.639	 -1.251	 -0.003	  0.002	 -0.001	 33.300	 99.143	 -1.378
29424	 -0.466	  0.457	  0.252	  9.684	 -0.661	 -1.201	 -0.003	  0.002	  0.000	 33.300	 99.121	  0.617
29474	 -0.462	  0.459	  0.249	  9.677	 -0.640	 -1.240	 -0.002	  0.002	  0.000	 33.300	 99.132	 -0.382
29524	 -0.463	  0.455	  0.251	  9.692	 -0.660	 -1.231	 -0.002	  0.002	  0.001	 33.300	 99.105	  2.068
29574	 -0.463	  0.465	  0.252	  9.679	 -0.653	 -1.224	 -0.003	  0.002	  0.000	 33.300	 99.132	 -0.382
29624	 -0.464	  0.455	  0.249	  9.688	 -0.661	 -1.206	 -0.003	  0.002	 -0.001	 33.300	 99.128	 -0.018
29674	 -0.464	  0.455	  0.248	  9.676	 -0.657	 -1.243	 -0.003	  0.004	  0.001	 33.300	 99.132	 -0.382
29724	 -0.463	  0.457	  0.251	  9.698	 -0.669	 -1.245	 -0.004	  0.002	  0.001	 33.300	 99.132	 -0.382
29774	 -0.463	  0.456	  0.251	  9.687	 -0.664	 -1.222	 -0.004	  0.003	  0.001	 33.300	 99.132	 -0.382
29824	 -0.463	  0.458	  0.249	  9.668	 -0.681	 -1.230	 -0.003	  0.003	  0.001	 33.300	 99.132	 -0.382
29874	 -0.463	  0.459	  0.248	  9.668	 -0.656	 -1.246	 -0.003	  0.002	 -0.000	 33.300	 99.116	  1.071
29924	 -0.463	  0.464	  0.250	  9.691	 -0.651	 -1.247	 -0.005	  0.003	  0.000	 33.300	 99.112	  1.433
29974	 -0.463	  0.455	  0.253	  9.689	 -0.668	 -1.231	 -0.003	  0.004	  0.000	 33.300	 99.116	  1.071
30024	 -0.464	  0.457	  0.247	  9.685	 -0.666	 -1.245	 -0.003	  0.002	  0.001	 33.300	 99.121	  0.617
30074	 -0.463	  0.455	  0.249	  9.665	 -0.681	 -1.214	 -0.003	  0.003	 -0.000	 33.300	 99.116	  1.071
30124	 -0.464	  0.458	  0.250	  9.680	 -0.646	 -1.199	 -0.005	  0.002	  0.001	 33.300	 99.132	 -0.382
30174	 -0.463	  0.457	  0.252	  9.684	 -0.674	 -1.242	 -0.003	  0.003	  0.001	 33.300	 99.121	  0.617
30224	 -0.462	  0.463	  0.251	  9.692	 -0.667	 -1.235	 -0.004	  0.003	  0.000	 33.300	 99.128	 -0.018
30274	 -0.463	  0.456	  0.248	  9.684	 -0.657	 -1.239	 -0.003	  0.003	  0.001	 33.300	 99.132	 -0.382
30324	 -0.460	  0.458	  0.248	  9.695	 -0.657	 -1.243	 -0.003	  0.002	  0.001	 33.300	 99.132	 -0.382
30374	 -0.467	  0.458	  0.248	  9.704	 -0.620	 -1.244	 -0.003	  0.004	  0.000	 33.300	 99.132	 -0.382
30424	 -0.464	  0.458	  0.254	  9.685	 -0.649	 -1.211	 -0.004	  0.003	  0.001	 33.300	 99.121	  0.617
30474	 -0.463	  0.457	  0.248	  9.688	 -0.666	 -1.242	 -0.003	  0.002	  0.000	 33.300	 99.132	 -0.382
30524	 -0.464	  0.456	  0.250	  9.672	 -0.669	 -1.221	 -0.003	  0.003	  0.001	 33.300	 99.121	  0.617
30574	 -0.462	  0.456	  0.253	  9.684	 -0.648	 -1.215	 -0.003	  0.002	  0.000	 33.300	 99.121	  0.617
30624	 -0.464	  0.457	  0.250	  9.690	 -0.646	 -1.244	 -0.003	  0.003	 -0.000	 33.300	 99.128	 -0.018
30674	 -0.465	  0.460	  0.251	  9.664	 -0.678	 -1.230	 -0.003	  0.003	  0.000	 33.300	 99.143	 -1.378
30724	 -0.464	  0.455	  0.246	  9.674	 -0.665	 -1.223	 -0.003	  0.002	  0.000	 33.300	 99.121	  0.617
30774	 -0.461	  0.456	  0.252	  9.648	 -0.647	 -1.260	 -0.004	  0.004	  0.000	 33.300	 99.128	 -0.018
30824	 -0.463	  0.460	  0.249	  9.690	 -0.655	 -1.210	 -0.003	  0.002	  0.001	 33.300	 99.132	 -0.382
30874	 -0.465	  0.463	  0.254	  9.675	 -0.646	 -1.205	 -0.003	  0.003	  0.001	 33.300	 99.132	 -0.382
30924	 -0.463	  0.462	  0.250	  9.693	 -0.653	 -1.221	 -0.003	  0.003	  0.001	 33.300	 99.132	 -0.382
30974	 -0.462	  0.453	  0.253	  9.681	 -0.650	 -1.222	 -0.003	  0.002	  0.001	 33.300	 99.132	 -0.382
31024	 -0.466	  0.457	  0.249	  9.679	 -0.656	 -1.242	 -0.002	  0.003	 -0.001	 33.300	 99.143	 -1.378
31074	 -0.462	  0.454	  0.253	  9.689	 -0.663	 -1.210	 -0.003	  0.003	  0.000	 33.300	 99.132	 -0.382
31124	 -0.464	  0.458	  0.251	  9.676	 -0.671	 -1.258	 -0.003	  0.003	 -0.000	 33.300	 99.132	 -0.382
31174	 -0.465	  0.453	  0.250	  9.688	 -0.640	 -1.229	 -0.003	  0.003	  0.001	 33.300	 99.121	  0.617
31224	 -0.463	  0.456	  0.250	  9.696	 -0.651	 -1.285	 -0.003	  0.003	  0.001	 33.300	 99.128	 -0.018
31274	 -0.464	  0.460	  0.252	  9.691	 -0.668	 -1.206	 -0.002	  0.002	 -0.000	 33.300	 99.132	 -0.382
31324	 -0.465	  0.455	  0.251	  9.686	 -0.633	 -1.212	 -0.004	  0.003	 -0.000	 33.300	 99.132	 -0.382
31374	 -0.463	  0.461	  0.249	  9.677	 -0.667	 -1.253	 -0.003	  0.002	  0.000	 33.300	 99.128	 -0.018
31424	 -0.465	  0.458	  0.247	  9.681	 -0.677	 -1.249	 -0.004	  0.002	  0.001	 33.300	 99.121	  0.617
31474	 -0.463	  0.460	  0.246	  9.691	 -0.666	 -1.209	 -0.004	  0.003	  0.001	 33.300	 99.132	 -0.382
31524	 -0.463	  0.460	  0.251	  9.679	 -0.652	 -1.232	 -0.003	  0.003	  0.000	 33.300	 99.121	  0.617
31574	 -0.466	  0.456	  0.250	  9.696	 -0.654	 -1.239	 -0.003	  0.001	 -0.000	 33.300	 99.132	 -0.382
31624	 -0.464	  0.462	  0.250	  9.662	 -0.653	 -1.215	 -0.003	  0.002	  0.000	 33.300	 99.128	 -0.018
31674	 -0.461	  0.462	  0.250	  9.672	 -0.659	 -1.199	 -0.003	  0.003	  0.001	 33.300	 99.128	 -0.018
31724	 -0.463	  0.459	  0.248	  9.697	 -0.640	 -1.242	 -0.003	  0.003	  0.000	 33.300	 99.132	 -0.382
31774	 -0.462	  0.455	  0.253	  9.667	 -0.651	 -1.226	 -0.004	  0.001	 -0.001	 33.300	 99.121	  0.617
31824	 -0.463	  0.455	  0.248	  9.670	 -0.659	 -1.252	 -0.005	  0.004	  0.000	 33.300	 99.121	  0.617
31874	 -0.463	  0.462	  0.252	  9.685	 -0.660	 -1.248	 -0.003	  0.003	 -0.001	 33.300	 99.132	 -0.382
31924	 -0.465	  0.456	  0.252	  9.694	 -0.658	 -1.230	 -0.004	  0.002	  0.001	 33.300	 99.116	  1.071
31974	 -0.462	  0.459	  0.251	  9.661	 -0.667	 -1.201	 -0.003	  0.003	  0.000	 33.300	 99.132	 -0.382
32024	 -0.464	  0.458	  0.252	  9.712	 -0.640	 -1.211	 -0.004	  0.003	  0.001	 33.300	 99.132	 -0.382
32074	 -0.465	  0.456	  0.247	  9.670	 -0.643	 -1.253	 -0.003	  0.002	  0.001	 33.300	 99.121	  0.617
32124	 -0.464	  0.462	  0.254	  9.689	 -0.655	 -1.212	 -0.004	  0.002	  0.001	 33.300	 99.132	 -0.382
32174	 -0.462	  0.460	  0.250	  9.674	 -0.659	 -1.231	 -0.003	  0.003	 -0.000	 33.300	 99.132	 -0.382
32224	 -0.464	  0.455	  0.255	  9.688	 -0.656	 -1.259	 -0.003	  0.003	  0.000	 33.300	 99.116	  1.071
32274	 -0.465	  0.455	  0.251	  9.686	 -0.659	 -1.230	 -0.003	  0.003	 -0.000	 33.300	 99.132	 -0.382
32324	 -0.461	  0.462	  0.255	  9.676	 -0.651	 -1.226	 -0.005	  0.003	  0.000	 33.300	 99.132	 -0.382
32374	 -0.466	  0.457	  0.250	  9.689	 -0.659	 -1.256	 -0.004	  0.002	 -0.000	 33.300	 99.128	 -0.018
32424	 -0.464	  0.455	  0.250	  9.684	 -0.639	 -1.227	 -0.004	  0.005	 -0.001	 33.300	 99.139	 -1.016
32474	 -0.462	  0.462	  0.249	  9.687	 -0.662	 -1.264	 -0.003	  0.003	  0.001	 33.300	 99.128	 -0.018
32523	 -0.463	  0.457	  0.250	  9.667	 -0.658	 -1.231	 -0.002	  0.002	  0.000	 33.300	 99.121	  0.617
32573	 -0.463	  0.460	  0.251	  9.673	 -0.666	 -1.228	 -0.004	  0.003	  0.000	 33.300	 99.132	 -0.382
32624	 -0.465	  0.457	  0.252	  9.682	 -0.648	 -1.209	 -0.004	  0.003	 -0.000	 33.300	 99.121	  0.617
32674	 -0.463	  0.455	  0.250	  9.684	 -0.670	 -1.199	 -0.003	  0.003	  0.000	 33.300	 99.121	  0.617
32723	 -0.462	  0.458	  0.252	  9.660	 -0.654	 -1.229	 -0.003	  0.002	 -0.000	 33.300	 99.128	 -0.018
32773	 -0.464	  0.456	  0.252	  9.685	 -0.653	 -1.223	 -0.002	  0.003	  0.001	 33.300	 99.128	 -0.018
32824	 -0.461	  0.460	  0.254	  9.724	 -0.654	 -1.227	 -0.003	  0.003	  0.000	 33.300	 99.128	 -0.018
32873	 -0.462	  0.462	  0.249	  9.684	 -0.660	 -1.242	 -0.003	  0.001	  0.000	 33.300	 99.121	  0.617
32923	 -0.462	  0.458	  0.250	  9.685	 -0.642	 -1.227	 -0.003	  0.003	  0.002	 33.300	 99.132	 -0.382
32974	 -0.463	  0.457	  0.250	  9.691	 -0.643	 -1.233	 -0.003	  0.002	 -0.001	 33.300	 99.121	  0.617
33024	 -0.464	  0.452	  0.251	  9.689	 -0.649	 -1.215	 -0.003	  0.003	  0.001	 33.300	 99.121	  0.617
33075	 -0.462	  0.454	  0.252	  9.674	 -0.636	 -1.247	 -0.004	  0.003	  0.001	 33.300	 99.132	 -0.382
33125	 -0.462	  0.456	  0.252	  9.685	 -0.660	 -1.239	 -0.004	  0.002	  0.001	 33.300	 99.121	  0.617
33175	 -0.464	  0.455	  0.247	  9.686	 -0.650	 -1.243	 -0.004	  0.003	  0.001	 33.300	 99.132	 -0.382
33225	 -0.464	  0.454	  0.249	  9.659	 -0.656	 -1.260	 -0.004	  0.004	  0.001	 33.300	 99.132	 -0.382
33275	 -0.462	  0.457	  0.253	  9.674	 -0.641	 -1.240	 -0.003	  0.003	 -0.000	 33.300	 99.132	 -0.382
33325	 -0.462	  0.456	  0.250	  9.663	 -0.666	 -1.234	 -0.004	  0.002	  0.001	 33.300	 99.132	 -0.382
33375	 -0.463	  0.455	  0.249	  9.688	 -0.665	 -1.247	 -0.004	  0.004	  0.001	 33.300	 99.132	 -0.382
33425	 -0.462	  0.457	  0.250	  9.701	 -0.646	 -1.227	 -0.004	  0.003	 -0.000	 33.300	 99.121	  0.617
33475	 -0.465	  0.453	  0.251	  9.676	 -0.661	 -1.207	 -0.004	  0.002	 -0.001	 33.300	 99.121	  0.617
33525	 -0.460	  0.460	  0.250	  9.682	 -0.669	 -1.222	 -0.004	  0.002	  0.000	 33.300	 99.132	 -0.382
33575	 -0.464	  0.454	  0.248	  9.701	 -0.658	 -1.228	 -0.004	  0.002	  0.001	 33.300	 99.132	 -0.382
33625	 -0.464	  0.460	  0.252	  9.684	 -0.644	 -1.221	 -0.003	  0.003	 -0.001	 33.300	 99.128	 -0.018
33675	 -0.464	  0.454	  0.249	  9.682	 -0.654	 -1.254	 -0.005	  0.003	 -0.000	 33.300	 99.121	  0.617
33725	 -0.461	  0.462	  0.253	  9.683	 -0.654	 -1.255	 -0.003	  0.004	  0.000	 33.300	 99.132	 -0.382
33775	 -0.466	  0.456	  0.247	  9.683	 -0.669	 -1.224	 -0.003	  0.002	  0.001	 33.300	 99.132	 -0.382
33825	 -0.463	  0.455	  0.249	  9.694	 -0.646	 -1.260	 -0.004	  0.001	 -0.001	 33.300	 99.121	  0.617
33875	 -0.466	  0.460	  0.255	  9.688	 -0.676	 -1.240	 -0.004	  0.003	  0.000	 33.300	 99.143	 -1.378
33925	 -0.465	  0.453	  0.252	  9.687	 -0.666	 -1.232	 -0.002	  0.002	  0.000	 33.300	 99.121	  0.617
33975	 -0.463	  0.456	  0.249	  9.678	 -0.654	 -1.212	 -0.003	  0.002	  0.001	 33.300	 99.109	  1.706
34025	 -0.463	  0.451	  0.245	  9.671	 -0.654	 -1.212	 -0.004	  0.003	  0.000	 33.300	 99.121	  0.617
34075	 -0.464	  0.455	  0.250	  9.697	 -0.652	 -1.244	 -0.003	  0.003	 -0.000	 33.300	 99.121	  0.617
34125	 -0.463	  0.455	  0.247	  9.695	 -0.656	 -1.244	 -0.003	  0.004	  0.000	 33.300	 99.128	 -0.018
34175	 -0.462	  0.456	  0.248	  9.662	 -0.623	 -1.234	 -0.003	  0.002	  0.001	 33.300	 99.116	  1.071
34225	 -0.463	  0.457	  0.248	  9.700	 -0.655	 -1.242	 -0.003	  0.004	  0.000	 33.300	 99.132	 -0.382
34275	 -0.464	  0.453	  0.252	  9.681	 -0.676	 -1.224	 -0.004	  0.001	 -0.000	 33.300	 99.128	 -0.018
34325	 -0.463	  0.456	  0.243	  9.693	 -0.649	 -1.237	 -0.003	  0.002	  0.001	 33.300	 99.121	  0.617
34375	 -0.462	  0.462	  0.249	  9.674	 -0.659	 -1.239	 -0.003	  0.003	 -0.000	 33.300	 99.109	  1.706
34425	 -0.462	  0.454	  0.250	  9.680	 -0.675	 -1.219	 -0.004	  0.003	  0.000	 33.300	 99.116	  1.071
34475	 -0.462	  0.458	  0.254	  9.695	 -0.668	 -1.222	 -0.003	  0.004	  0.000	 33.300	 99.121	  0.617
34525	 -0.461	  0.459	  0.249	  9.679	 -0.646	 -1.212	 -0.003	  0.003	  0.001	 33.300	 99.121	  0.617
34575	 -0.461	  0.457	  0.249	  9.683	 -0.658	 -1.231	 -0.004	  0.002	  0.000	 33.300	 99.121	  0.617
34625	 -0.462	  0.456	  0.252	  9.702	 -0.657	 -1.218	 -0.003	  0.003	  0.001	 33.300	 99.121	  0.617
34675	 -0.462	  0.458	  0.250	  9.687	 -0.654	 -1.225	 -0.003	  0.003	  0.000	 33.300	 99.121	  0.617
34725	 -0.463	  0.454	  0.247	  9.670	 -0.650	 -1.228	 -0.004	  0.003	  0.000	 33.300	 99.109	  1.706
34775	 -0.464	  0.455	  0.244	  9.695	 -0.653	 -1.263	 -0.004	  0.002	  0.001	 33.300	 99.116	  1.071
34825	 -0.464	  0.452	  0.248	  9.680	 -0.655	 -1.225	 -0.003	  0.003	  0.001	 33.300	 99.121	  0.617
34875	 -0.464	  0.455	  0.248	  9.686	 -0.665	 -1.200	 -0.003	  0.003	  0.000	 33.300	 99.121	  0.617
34925	 -0.465	  0.456	  0.251	  9.676	 -0.662	 -1.222	 -0.003	  0.003	  0.000	 33.300	 99.121	  0.617
34975	 -0.462	  0.457	  0.248	  9.694	 -0.650	 -1.232	 -0.003	  0.002	  0.001	 33.300	 99.109	  1.706
35025	 -0.465	  0.458	  0.248	  9.685	 -0.662	 -1.244	 -0.004	  0.003	  0.001	 33.300	 99.109	  1.706
35075	 -0.464	  0.454	  0.247	  9.675	 -0.674	 -1.215	 -0.003	  0.003	 -0.001	 33.300	 99.105	  2.068
35124	 -0.463	  0.462	  0.248	  9.696	 -0.657	 -1.258	 -0.004	  0.003	  0.000	 33.300	 99.121	  0.617
35174	 -0.465	  0.454	  0.249	  9.674	 -0.655	 -1.244	 -0.004	  0.004	  0.001	 33.300	 99.121	  0.617
35224	 -0.464	  0.460	  0.249	  9.669	 -0.636	 -1.203	 -0.003	  0.003	  0.001	 33.300	 99.121	  0.617
35274	 -0.463	  0.456	  0.248	  9.671	 -0.626	 -1.212	 -0.003	  0.003	 -0.000	 33.300	 99.109	  1.706
35324	 -0.463	  0.457	  0.251	  9.689	 -0.641	 -1.233	 -0.003	  0.002	  0.000	 33.300	 99.132	 -0.382
35374	 -0.464	  0.457	  0.252	  9.683	 -0.654	 -1.237	 -0.003	  0.003	  0.000	 33.300	 99.121	  0.617
35424	 -0.465	  0.453	  0.252	  9.691	 -0.658	 -1.214	 -0.004	  0.003	  0.001	 33.300	 99.121	  0.617
35474	 -0.465	  0.458	  0.244	  9.689	 -0.650	 -1.203	 -0.004	  0.001	  0.001	 33.300	 99.132	 -0.382
35524	 -0.464	  0.454	  0.249	  9.662	 -0.668	 -1.226	 -0.003	  0.002	 -0.000	 33.300	 99.121	  0.617
35574	 -0.463	  0.456	  0.246	  9.699	 -0.655	 -1.230	 -0.003	  0.003	  0.001	 33.300	 99.121	  0.617
35624	 -0.462	  0.460	  0.248	  9.669	 -0.663	 -1.227	 -0.004	  0.002	  0.001	 33.300	 99.121	  0.617
35674	 -0.463	  0.458	  0.252	  9.645	 -0.636	 -1.250	 -0.003	  0.003	 -0.000	 33.300	 99.116	  1.071
35724	 -0.463	  0.459	  0.251	  9.664	 -0.667	 -1.236	 -0.004	  0.003	  0.000	 33.300	 99.121	  0.617
35774	 -0.463	  0.455	  0.250	  9.672	 -0.663	 -1.248	 -0.003	  0.002	  0.001	 33.300	 99.121	  0.617
35824	 -0.464	  0.458	  0.249	  9.671	 -0.671	 -1.185	 -0.004	  0.002	  0.000	 33.300	 99.121	  0.617
35874	 -0.462	  0.457	  0.252	  9.692	 -0.637	 -1.237	 -0.003	  0.003	 -0.000	 33.300	 99.121	  0.617
35924	 -0.463	  0.457	  0.251	  9.674	 -0.658	 -1.228	 -0.004	  0.001	 -0.000	 33.300	 99.109	  1.706
35974	 -0.465	  0.454	  0.254	  9.683	 -0.656	 -1.249	 -0.005	  0.002	  0.000	 33.300	 99.121	  0.617
36024	 -0.463	  0.455	  0.249	  9.684	 -0.653	 -1.229	 -0.004	  0.004	  0.001	 33.300	 99.121	  0.617
36074	 -0.466	  0.459	  0.251	  9.675	 -0.676	 -1.216	 -0.004	  0.002	  0.000	 33.300	 99.116	  1.071
36124	 -0.464	  0.454	  0.252	  9.695	 -0.646	 -1.216	 -0.003	  0.002	  0.000	 33.300	 99.121	  0.617
36174	 -0.466	  0.457	  0.248	  9.678	 -0.652	 -1.232	 -0.004	  0.003	  0.000	 33.300	 99.121	  0.617
36224	 -0.462	  0.454	  0.253	  9.692	 -0.662	 -1.237	 -0.004	  0.001	  0.002	 33.300	 99.121	  0.617
36274	 -0.463	  0.459	  0.251	  9.690	 -0.653	 -1.219	 -0.004	  0.004	 -0.001	 33.300	 99.109	  1.706
36324	 -0.462	  0.456	  0.248	  9.680	 -0.664	 -1.234	 -0.003	  0.003	  0.001	 33.300	 99.121	  0.617
36374	 -0.462	  0.456	  0.250	  9.696	 -0.669	 -1.213	 -0.003	  0.002	  0.001	 33.300	 99.116	  1.071
36424	 -0.463	  0.460	  0.252	  9.692	 -0.647	 -1.244	 -0.003	  0.002	  0.000	 33.300	 99.121	  0.617
36474	 -0.462	  0.464	  0.251	  9.682	 -0.643	 -1.239	 -0.005	  0.001	  0.001	 33.300	 99.121	  0.617
36524	 -0.464	  0.455	  0.248	  9.672	 -0.657	 -1.268	 -0.004	  0.002	  0.001	 33.300	 99.121	  0.617
36574	 -0.463	  0.455	  0.249	  9.682	 -0.657	 -1.232	 -0.005	  0.002	 -0.000	 33.300	 99.121	  0.617
36624	 -0.463	  0.461	  0.250	  9.674	 -0.656	 -1.225	 -0.003	  0.001	  0.001	 33.300	 99.121	  0.617
36674	 -0.463	  0.456	  0.250	  9.691	 -0.645	 -1.231	 -0.003	  0.002	  0.001	 33.300	 99.109	  1.706
36724	 -0.462	  0.458	  0.249	  9.695	 -0.655	 -1.234	 -0.004	  0.003	  0.001	 33.300	 99.121	  0.617
36774	 -0.466	  0.460	  0.252	  9.687	 -0.669	 -1.222	 -0.004	  0.003	  0.001	 33.300	 99.121	  0.617
36824	 -0.463	  0.463	  0.251	  9.666	 -0.644	 -1.236	 -0.003	  0.002	  0.001	 33.300	 99.121	  0.617
36874	 -0.463	  0.458	  0.247	  9.686	 -0.650	 -1.226	 -0.005	  0.002	  0.001	 33.300	 99.121	  0.617
36924	 -0.464	  0.453	  0.252	  9.684	 -0.668	 -1.241	 -0.003	  0.003	  0.001	 33.300	 99.121	  0.617
36974	 -0.462	  0.459	  0.247	  9.709	 -0.640	 -1.224	 -0.003	  0.003	  0.000	 33.300	 99.109	  1.706
37024	 -0.462	  0.462	  0.251	  9.680	 -0.670	 -1.220	 -0.003	  0.002	 -0.000	 33.300	 99.109	  1.706
37074	 -0.463	  0.458	  0.250	  9.650	 -0.672	 -1.225	 -0.004	  0.002	  0.001	 33.300	 99.121	  0.617
37124	 -0.465	  0.454	  0.249	  9.677	 -0.653	 -1.234	 -0.004	  0.004	  0.000	 33.300	 99.121	  0.617
37174	 -0.464	  0.456	  0.251	  9.673	 -0.645	 -1.223	 -0.004	  0.002	  0.002	 33.300	 99.121	  0.617
37224	 -0.464	  0.458	  0.247	  9.691	 -0.669	 -1.244	 -0.005	  0.002	  0.000	 33.300	 99.121	  0.617
37274	 -0.464	  0.457	  0.251	  9.686	 -0.654	 -1.251	 -0.005	  0.003	 -0.000	 33.300	 99.116	  1.071
37324	 -0.462	  0.459	  0.254	  9.666	 -0.647	 -1.224	 -0.003	  0.003	 -0.000	 33.300	 99.116	  1.071
37374	 -0.464	  0.454	  0.247	  9.698	 -0.652	 -1.215	 -0.003	  0.002	  0.000	 33.300	 99.121	  0.617
37424	 -0.463	  0.459	  0.247	  9.695	 -0.662	 -1.222	 -0.003	  0.003	  0.000	 33.300	 99.121	  0.617
37474	 -0.465	  0.455	  0.252	  9.670	 -0.659	 -1.207	 -0.003	  0.003	  0.001	 33.300	 99.121	  0.617
37524	 -0.463	  0.456	  0.246	  9.677	 -0.668	 -1.206	 -0.004	  0.002	 -0.001	 33.300	 99.132	 -0.382
37574	 -0.464	  0.455	  0.251	  9.712	 -0.666	 -1.226	 -0.003	  0.003	  0.001	 33.300	 99.109	  1.706
37624	 -0.461	  0.458	  0.254	  9.686	 -0.657	 -1.224	 -0.001	  0.002	 -0.001	 33.300	 99.121	  0.617
37674	 -0.464	  0.459	  0.251	  9.666	 -0.676	 -1.220	 -0.004	  0.003	  0.001	 33.300	 99.132	 -0.382
37724	 -0.462	  0.463	  0.252	  9.688	 -0.652	 -1.249	 -0.003	  0.002	  0.000	 33.300	 99.128	 -0.018
37775	 -0.463	  0.457	  0.247	  9.693	 -0.680	 -1.234	 -0.004	  0.002	  0.001	 33.300	 99.121	  0.617
37824	 -0.463	  0.452	  0.253	  9.674	 -0.673	 -1.242	 -0.003	  0.002	  0.001	 33.300	 99.121	  0.617
37874	 -0.463	  0.459	  0.250	  9.673	 -0.650	 -1.247	 -0.003	  0.002	 -0.001	 33.300	 99.132	 -0.382
37924	 -0.463	  0.453	  0.242	  9.670	 -0.643	 -1.260	 -0.004	  0.003	 -0.000	 33.300	 99.132	 -0.382
37974	 -0.463	  0.457	  0.245	  9.696	 -0.654	 -1.260	 -0.004	  0.002	 -0.000	 33.300	 99.132	 -0.382
38024	 -0.463	  0.455	  0.248	  9.683	 -0.647	 -1.227	 -0.004	  0.002	  0.000	 33.300	 99.132	 -0.382
38074	 -0.463	  0.458	  0.252	  9.676	 -0.667	 -1.214	 -0.004	  0.005	  0.001	 33.300	 99.132	 -0.382
38125	 -0.464	  0.458	  0.251	  9.688	 -0.666	 -1.217	 -0.003	  0.004	  0.001	 33.300	 99.121	  0.617
38174	 -0.464	  0.460	  0.252	  9.678	 -0.640	 -1.241	 -0.003	  0.004	 -0.001	 33.300	 99.121	  0.617
38225	 -0.463	  0.462	  0.249	  9.670	 -0.630	 -1.207	 -0.003	  0.002	  0.001	 33.300	 99.132	 -0.382
38275	 -0.463	  0.461	  0.250	  9.679	 -0.662	 -1.222	 -0.004	  0.003	  0.002	 33.300	 99.109	  1.706
38324	 -0.464	  0.456	  0.248	  9.688	 -0.669	 -1.223	 -0.003	  0.002	 -0.000	 33.300	 99.132	 -0.382
38375	 -0.464	  0.455	  0.250	  9.668	 -0.646	 -1.234	 -0.003	  0.002	  0.000	 33.300	 99.121	  0.617
38425	 -0.466	  0.456	  0.247	  9.688	 -0.648	 -1.217	 -0.003	  0.002	  0.000	 33.300	 99.143	 -1.378
38475	 -0.463	  0.458	  0.251	  9.687	 -0.692	 -1.236	 -0.003	  0.002	  0.000	 33.300	 99.121	  0.617
38525	 -0.465	  0.454	  0.251	  9.682	 -0.665	 -1.209	 -0.002	  0.003	  0.001	 33.300	 99.121	  0.617
38575	 -0.462	  0.455	  0.249	  9.686	 -0.671	 -1.260	 -0.003	  0.001	  0.000	 33.300	 99.109	  1.706
38625	 -0.463	  0.457	  0.248	  9.675	 -0.666	 -1.257	 -0.003	  0.002	  0.001	 33.300	 99.121	  0.617
38675	 -0.466	  0.455	  0.248	  9.693	 -0.679	 -1.227	 -0.003	  0.002	 -0.000	 33.300	 99.121	  0.617
38725	 -0.462	  0.459	  0.251	  9.681	 -0.642	 -1.214	 -0.004	  0.003	  0.001	 33.300	 99.132	 -0.382
38775	 -0.464	  0.457	  0.250	  9.675	 -0.666	 -1.263	 -0.003	  0.003	  0.000	 33.300	 99.121	  0.617
38825	 -0.464	  0.456	  0.250	  9.671	 -0.698	 -1.245	 -0.003	  0.002	 -0.000	 33.300	 99.132	 -0.382
38875	 -0.463	  0.453	  0.252	  9.677	 -0.634	 -1.248	 -0.003	  0.003	  0.000	 33.300	 99.121	  0.617
38925	 -0.463	  0.458	  0.250	  9.683	 -0.687	 -1.234	 -0.004	  0.004	  0.001	 33.300	 99.125	  0.254
38975	 -0.463	  0.458	  0.254	  9.684	 -0.669	 -1.226	 -0.002	  0.002	  0.000	 33.300	 99.121	  0.617
39025	 -0.462	  0.461	  0.253	  9.681	 -0.642	 -1.273	 -0.003	  0.002	  0.001	 33.300	 99.132	 -0.382
39075	 -0.465	  0.456	  0.251	  9.708	 -0.643	 -1.255	 -0.004	  0.002	  0.001	 33.300	 99.132	 -0.382
39125	 -0.463	  0.460	  0.250	  9.687	 -0.650	 -1.233	 -0.004	  0.003	  0.000	 33.300	 99.121	  0.617
39175	 -0.464	  0.460	  0.250	  9.689	 -0.662	 -1.234	 -0.004	  0.003	  0.000	 33.300	 99.132	 -0.382
39225	 -0.462	  0.454	  0.254	  9.696	 -0.660	 -1.228	 -0.003	  0.003	  0.000	 33.300	 99.128	 -0.018
39275	 -0.465	  0.457	  0.249	  9.666	 -0.652	 -1.216	 -0.005	  0.003	  0.000	 33.300	 99.132	 -0.382
39325	 -0.466	  0.454	  0.254	  9.692	 -0.663	 -1.231	 -0.003	  0.002	 -0.000	 33.300	 99.121	  0.617
39375	 -0.464	  0.456	  0.247	  9.660	 -0.646	 -1.213	 -0.004	  0.003	  0.000	 33.300	 99.121	  0.617
39425	 -0.463	  0.453	  0.249	  9.683	 -0.665	 -1.232	 -0.003	  0.003	  0.000	 33.300	 99.121	  0.617
39475	 -0.464	  0.453	  0.248	  9.670	 -0.654	 -1.213	 -0.004	  0.003	  0.001	 33.300	 99.121	  0.617
39525	 -0.465	  0.454	  0.248	  9.679	 -0.655	 -1.235	 -0.003	  0.003	  0.001	 33.300	 99.132	 -0.382
39575	 -0.462	  0.459	  0.253	  9.683	 -0.648	 -1.243	 -0.004	  0.002	  0.000	 33.300	 99.132	 -0.382
39625	 -0.462	  0.456	  0.250	  9.695	 -0.646	 -1.254	 -0.003	  0.002	  0.001	 33.300	 99.132	 -0.382
39675	 -0.463	  0.456	  0.250	  9.686	 -0.658	 -1.257	 -0.003	  0.003	  0.000	 33.300	 99.121	  0.617
39725	 -0.465	  0.458	  0.246	  9.677	 -0.642	 -1.228	 -0.003	  0.002	  0.001	 33.300	 99.121	  0.617
39775	 -0.463	  0.452	  0.253	  9.690	 -0.633	 -1.187	 -0.003	  0.001	  0.001	 33.300	 99.132	 -0.382
39824	 -0.463	  0.459	  0.248	  9.691	 -0.659	 -1.228	 -0.003	  0.004	  0.001	 33.300	 99.132	 -0.382
39874	 -0.464	  0.455	  0.249	  9.689	 -0.677	 -1.289	 -0.003	  0.003	 -0.000	 33.300	 99.116	  1.071
39924	 -0.461	  0.458	  0.250	  9.676	 -0.646	 -1.189	 -0.003	  0.003	  0.001	 33.300	 99.109	  1.706
39974	 -0.463	  0.454	  0.251	  9.669	 -0.654	 -1.218	 -0.002	  0.002	 -0.000	 33.300	 99.121	  0.617
40024	 -0.463	  0.456	  0.249	  9.685	 -0.667	 -1.236	 -0.003	  0.004	  0.001	 33.300	 99.132	 -0.382
40074	 -0.463	  0.457	  0.250	  9.685	 -0.640	 -1.221	 -0.005	  0.002	 -0.000	 33.300	 99.132	 -0.382
40124	 -0.465	  0.455	  0.249	  9.662	 -0.674	 -1.217	 -0.004	  0.003	  0.002	 33.300	 99.121	  0.617
40174	 -0.464	  0.455	  0.250	  9.692	 -0.645	 -1.210	 -0.003	  0.004	 -0.000	 33.300	 99.121	  0.617
40224	 -0.464	  0.452	  0.251	  9.711	 -0.645	 -1.260	 -0.004	  0.003	 -0.001	 33.300	 99.132	 -0.382
40274	 -0.462	  0.458	  0.250	  9.674	 -0.664	 -1.232	 -0.003	  0.003	 -0.000	 33.300	 99.128	 -0.018
40324	 -0.464	  0.458	  0.249	  9.711	 -0.669	 -1.252	 -0.003	  0.002	  0.000	 33.300	 99.132	 -0.382
40374	 -0.463	  0.458	  0.251	  9.692	 -0.669	 -1.283	 -0.004	  0.003	  0.000	 33.300	 99.132	 -0.382
40424	 -0.462	  0.456	  0.252	  9.685	 -0.658	 -1.224	 -0.004	  0.003	  0.002	 33.300	 99.121	  0.617
40474	 -0.462	  0.467	  0.251	  9.680	 -0.653	 -1.238	 -0.004	  0.002	  0.000	 33.300	 99.132	 -0.382
40524	 -0.467	  0.456	  0.248	  9.688	 -0.655	 -1.223	 -0.003	  0.003	  0.002	 33.300	 99.121	  0.617
40574	 -0.464	  0.460	  0.252	  9.699	 -0.650	 -1.229	 -0.003	  0.002	  0.001	 33.300	 99.132	 -0.382
40624	 -0.464	  0.454	  0.251	  9.672	 -0.649	 -1.243	 -0.003	  0.003	  0.002	 33.300	 99.132	 -0.382
40674	 -0.462	  0.458	  0.248	  9.687	 -0.633	 -1.238	 -0.004	  0.001	  0.000	 33.300	 99.109	  1.706
40724	 -0.464	  0.457	  0.252	  9.688	 -0.661	 -1.245	 -0.003	  0.002	  0.000	 33.300	 99.121	  0.617
40774	 -0.463	  0.457	  0.255	  9.677	 -0.669	 -1.275	 -0.003	  0.004	  0.002	 33.300	 99.121	  0.617
40824	 -0.465	  0.457	  0.251	  9.690	 -0.647	 -1.242	 -0.004	  0.003	  0.001	 33.300	 99.143	 -1.378
40874	 -0.463	  0.459	  0.254	  9.681	 -0.682	 -1.228	 -0.004	  0.003	  0.002	 33.300	 99.121	  0.617
40924	 -0.465	  0.456	  0.250	  9.701	 -0.649	 -1.205	 -0.004	  0.002	  0.002	 33.300	 99.132	 -0.382
40974	 -0.465	  0.459	  0.255	  9.693	 -0.653	 -1.237	 -0.003	  0.003	  0.000	 33.300	 99.132	 -0.382
41024	 -0.465	  0.456	  0.254	  9.689	 -0.666	 -1.217	 -0.003	  0.003	  0.001	 33.300	 99.132	 -0.382
41074	 -0.465	  0.458	  0.252	  9.684	 -0.654	 -1.235	 -0.003	  0.003	 -0.000	 33.300	 99.132	 -0.382
41124	 -0.464	  0.455	  0.254	  9.682	 -0.642	 -1.249	 -0.004	  0.001	  0.001	 33.300	 99.121	  0.617
41174	 -0.465	  0.456	  0.254	  9.675	 -0.644	 -1.222	 -0.004	  0.002	 -0.000	 33.300	 99.136	 -0.744
41224	 -0.467	  0.457	  0.256	  9.653	 -0.645	 -1.200	 -0.003	  0.004	  0.001	 33.300	 99.132	 -0.382
41274	 -0.466	  0.458	  0.250	  9.706	 -0.670	 -1.205	 -0.004	  0.001	  0.001	 33.300	 99.125	  0.254
41324	 -0.465	  0.456	  0.250	  9.682	 -0.641	 -1.193	 -0.004	  0.002	  0.002	 33.300	 99.132	 -0.382
41374	 -0.465	  0.456	  0.255	  9.677	 -0.668	 -1.229	 -0.004	  0.002	 -0.000	 33.300	 99.121	  0.617
41424	 -0.464	  0.463	  0.254	  9.686	 -0.645	 -1.239	 -0.003	  0.003	 -0.000	 33.300	 99.132	 -0.382
41474	 -0.465	  0.460	  0.252	  9.683	 -0.660	 -1.248	 -0.003	  0.002	 -0.000	 33.300	 99.132	 -0.382
41524	 -0.466	  0.456	  0.254	  9.659	 -0.673	 -1.248	 -0.005	  0.003	 -0.000	 33.300	 99.121	  0.617
41574	 -0.465	  0.457	  0.255	  9.678	 -0.680	 -1.194	 -0.003	  0.002	 -0.001	 33.300	 99.121	  0.617
41624	 -0.465	  0.455	  0.252	  9.780	 -0.949	 -1.773	 -0.082	 -0.005	 -0.009	 33.300	 99.125	  0.254
41674	 -0.467	  0.454	  0.258	  9.684	 -0.654	 -1.143	 -0.008	 -0.000	 -0.002	 33.300	 99.132	 -0.382
41724	 -0.464	  0.457	  0.258	  9.682	 -0.627	 -1.170	  0.040	  0.006	  0.006	 33.300	 99.132	 -0.382
41774	 -0.465	  0.465	  0.255	  9.687	 -0.676	 -1.192	  0.040	  0.034	  0.006	 33.300	 99.132	 -0.382
41824	 -0.466	  0.452	  0.255	  9.689	 -0.652	 -1.252	 -0.029	 -0.014	 -0.001	 33.300	 99.132	 -0.382
41874	 -0.465	  0.458	  0.256	  9.687	 -0.656	 -1.236	  0.003	  0.007	  0.001	 33.300	 99.121	  0.617
41924	 -0.467	  0.460	  0.255	  9.701	 -0.742	 -1.325	 -0.010	  0.001	 -0.006	 33.300	 99.121	  0.617
41974	 -0.468	  0.456	  0.249	  9.674	 -0.634	 -1.251	  0.005	  0.006	 -0.003	 33.300	 99.121	  0.617
42024	 -0.464	  0.461	  0.254	  9.672	 -0.588	 -1.103	  0.004	 -0.003	 -0.001	 33.300	 99.121	  0.617
42074	 -0.464	  0.457	  0.254	  9.698	 -0.720	 -1.248	  0.007	  0.003	  0.008	 33.300	 99.132	 -0.382
42124	 -0.465	  0.459	  0.256	  9.648	 -0.609	 -1.182	 -0.018	  0.008	  0.024	 33.300	 99.121	  0.617
42174	 -0.462	  0.459	  0.256	  9.742	 -0.912	 -1.312	 -0.120	 -0.003	  0.035	 33.300	 99.132	 -0.382
42224	 -0.462	  0.456	  0.259	  9.782	 -0.778	 -0.750	 -0.018	 -0.006	 -0.007	 33.300	 99.109	  1.706
42274	 -0.465	  0.456	  0.258	  9.837	 -1.162	 -0.948	  0.006	  0.026	  0.045	 33.300	 99.113	  1.343
42324	 -0.463	  0.459	  0.256	  9.672	 -0.607	 -1.222	  0.051	  0.033	 -0.002	 33.300	 99.132	 -0.382
42374	 -0.463	  0.459	  0.255	  9.603	 -0.512	 -1.179	  0.011	  0.012	  0.021	 33.300	 99.132	 -0.382
42424	 -0.463	  0.467	  0.254	  9.785	 -0.744	 -1.282	 -0.178	  0.202	  0.221	 33.300	 99.132	 -0.382
42474	 -0.454	  0.469	  0.260	  9.770	 -0.191	 -2.169	 -0.140	 -0.021	  0.639	 33.300	 99.121	  0.617
42524	 -0.435	  0.479	  0.278	 10.587	 -1.974	 -1.378	 -0.623	 -0.355	  0.106	 33.300	 99.132	 -0.382
42574	 -0.431	  0.474	  0.286	  9.574	 -1.022	 -1.627	 -0.082	 -0.043	 -0.006	 33.300	 99.132	 -0.382
42624	 -0.433	  0.472	  0.289	  9.794	 -0.663	 -1.517	  0.123	  0.115	  0.044	 33.300	 99.125	  0.254
42674	 -0.436	  0.483	  0.272	  9.424	 -0.843	 -1.803	  0.439	  0.248	  0.033	 33.300	 99.132	 -0.382
42724	 -0.438	  0.488	  0.257	  9.697	 -1.292	 -0.942	  0.496	  0.290	  0.038	 33.300	 99.132	 -0.382
42774	 -0.442	  0.495	  0.246	  9.750	 -1.430	 -0.796	  0.048	  0.031	  0.004	 33.300	 99.109	  1.706
42824	 -0.442	  0.488	  0.245	  9.650	 -1.263	 -1.041	 -0.141	 -0.070	 -0.009	 33.300	 99.121	  0.617
42874	 -0.440	  0.487	  0.257	  9.846	 -1.735	 -1.195	 -0.226	 -0.137	 -0.080	 33.300	 99.132	 -0.382
42924	 -0.437	  0.489	  0.262	  9.573	 -0.974	 -1.409	 -0.046	 -0.018	  0.005	 33.300	 99.121	  0.617
42974	 -0.440	  0.483	  0.265	  9.660	 -1.185	 -1.216	 -0.152	 -0.070	 -0.013	 33.300	 99.132	 -0.382
43024	 -0.440	  0.482	  0.265	  9.526	 -0.908	 -1.295	 -0.014	 -0.001	 -0.016	 33.300	 99.121	  0.617
43074	 -0.439	  0.482	  0.272	  9.631	 -1.152	 -1.262	  0.041	  0.030	  0.012	 33.300	 99.132	 -0.382
43124	 -0.440	  0.482	  0.264	  9.641	 -1.200	 -1.216	 -0.008	 -0.004	 -0.000	 33.300	 99.121	  0.617
43174	 -0.439	  0.487	  0.266	  9.508	 -0.847	 -1.475	  0.130	  0.079	  0.042	 33.300	 99.132	 -0.382
43224	 -0.441	  0.484	  0.256	  9.748	 -1.511	 -1.406	 -0.021	 -0.016	 -0.065	 33.300	 99.132	 -0.382
43274	 -0.442	  0.481	  0.260	  9.600	 -1.672	 -1.049	  0.189	 -0.241	 -0.207	 33.300	 99.132	 -0.382
43324	 -0.438	  0.483	  0.258	  8.234	  0.609	 -1.971	  0.409	 -0.641	 -0.110	 33.300	 99.132	 -0.382
43374	 -0.408	  0.515	  0.252	 12.570	 -1.026	 -2.005	  1.636	 -0.464	  1.199	 33.300	 99.132	 -0.382
43424	 -0.382	  0.559	  0.219	  9.259	 -2.647	 -1.606	  0.920	  0.373	  0.831	 33.300	 99.121	  0.617
43475	 -0.380	  0.562	  0.194	  8.726	 -1.615	 -0.571	 -0.139	  0.021	  0.099	 33.300	 99.132	 -0.382
43524	 -0.383	  0.560	  0.195	  7.062	 -2.380	  0.542	 -0.203	  0.110	 -0.535	 33.300	 99.121	  0.617
43575	 -0.416	  0.534	  0.223	 36.017	  2.837	 -2.818	 -1.471	 -0.335	 -1.675	 33.300	 99.121	  0.617
43625	 -0.417	  0.483	  0.273	  6.388	  2.190	 -3.119	 -0.012	 -0.459	 -0.170	 33.300	 99.121	  0.617
43675	 -0.373	  0.539	  0.252	 18.873	 -3.325	 -1.401	  1.568	  0.201	  1.969	 33.300	 99.132	 -0.382
43725	 -0.350	  0.585	  0.209	 10.295	 -3.346	 -2.430	  0.501	  1.308	  0.893	 33.300	 99.121	  0.617
43775	 -0.367	  0.572	  0.208	  6.260	 -3.065	  0.366	 -1.002	 -0.244	 -1.741	 33.300	 99.132	 -0.382
43825	 -0.386	  0.543	  0.242	  6.081	  3.021	  1.014	  0.009	 -0.248	  0.016	 33.300	 99.121	  0.617
43874	 -0.354	  0.563	  0.236	  9.266	 -0.989	 -1.682	  0.720	  0.014	  1.359	 33.300	 99.132	 -0.382
43925	 -0.341	  0.587	  0.216	  8.666	 -3.884	 -0.059	  0.018	  0.377	 -0.026	 33.300	 99.121	  0.617
43975	 -0.349	  0.580	  0.224	  8.603	 -1.834	  0.123	 -0.115	  0.032	 -0.292	 33.300	 99.125	  0.254
44025	 -0.350	  0.575	  0.227	  9.398	 -2.341	 -0.918	 -0.026	  0.025	 -0.039	 33.300	 99.121	  0.617
44075	 -0.350	  0.580	  0.234	  9.370	 -2.081	 -1.263	 -0.000	  0.010	  0.006	 33.300	 99.121	  0.617
44125	 -0.351	  0.580	  0.231	  9.437	 -2.392	 -1.251	  0.044	  0.025	  0.004	 33.300	 99.132	 -0.382
44175	 -0.350	  0.582	  0.230	  9.426	 -2.348	 -1.273	 -0.012	 -0.002	  0.001	 33.300	 99.121	  0.617
44225	 -0.349	  0.583	  0.232	  9.405	 -2.400	 -1.171	  0.004	  0.006	  0.001	 33.300	 99.132	 -0.382
44275	 -0.350	  0.577	  0.228	  9.367	 -2.190	 -1.165	  0.022	 -0.038	  0.023	 33.300	 99.121	  0.617
44325	 -0.350	  0.578	  0.233	  9.312	 -1.958	 -1.372	  0.004	 -0.003	  0.003	 33.300	 99.132	 -0.382
44375	 -0.348	  0.584	  0.230	  9.410	 -2.421	 -1.363	 -0.005	  0.002	 -0.001	 33.300	 99.121	  0.617
44425	 -0.350	  0.579	  0.233	  9.412	 -2.379	 -1.269	 -0.001	  0.003	  0.001	 33.300	 99.132	 -0.382
44475	 -0.348	  0.577	  0.229	  9.412	 -2.375	 -1.318	 -0.005	  0.001	 -0.000	 33.300	 99.116	  1.071
44525	 -0.351	  0.580	  0.230	  9.421	 -2.361	 -1.248	 -0.001	  0.003	  0.001	 33.300	 99.121	  0.617
44575	 -0.349	  0.579	  0.228	  9.408	 -2.369	 -1.235	 -0.003	  0.004	 -0.000	 33.300	 99.125	  0.254
44625	 -0.350	  0.583	  0.231	  9.405	 -2.370	 -1.244	 -0.005	  0.002	  0.000	 33.300	 99.132	 -0.382
44675	 -0.349	  0.576	  0.231	  9.396	 -2.377	 -1.236	 -0.004	  0.001	 -0.001	 33.300	 99.121	  0.617
44725	 -0.350	  0.581	  0.228	  9.417	 -2.357	 -1.266	 -0.003	  0.002	  0.001	 33.300	 99.121	  0.617
44775	 -0.349	  0.578	  0.228	  9.407	 -2.383	 -1.287	 -0.002	  0.004	 -0.000	 33.300	 99.121	  0.617
44825	 -0.349	  0.579	  0.228	  9.409	 -2.351	 -1.250	 -0.003	  0.002	  0.000	 33.300	 99.132	 -0.382
44875	 -0.349	  0.577	  0.232	  9.411	 -2.380	 -1.255	 -0.004	  0.002	  0.001	 33.300	 99.121	  0.617
44925	 -0.347	  0.583	  0.229	  9.436	 -2.351	 -1.258	 -0.004	  0.003	  0.000	 33.300	 99.132	 -0.382
44975	 -0.349	  0.579	  0.226	  9.417	 -2.352	 -1.254	 -0.004	  0.003	  0.001	 33.300	 99.121	  0.617
45025	 -0.349	  0.579	  0.232	  9.415	 -2.367	 -1.261	 -0.005	  0.002	  0.001	 33.300	 99.136	 -0.744
45075	 -0.349	  0.577	  0.228	  9.412	 -2.357	 -1.277	 -0.003	  0.002	 -0.001	 33.300	 99.132	 -0.382
45125	 -0.351	  0.573	  0.226	  9.416	 -2.352	 -1.236	 -0.004	  0.002	  0.000	 33.300	 99.132	 -0.382
45175	 -0.349	  0.583	  0.226	  9.408	 -2.374	 -1.269	 -0.003	  0.002	  0.001	 33.300	 99.132	 -0.382
45225	 -0.348	  0.582	  0.228	  9.404	 -2.379	 -1.311	 -0.003	  0.004	  0.001	 33.300	 99.121	  0.617
45275	 -0.348	  0.576	  0.225	  9.421	 -2.351	 -1.276	 -0.003	  0.003	  0.000	 33.300	 99.121	  0.617
45325	 -0.347	  0.578	  0.221	  9.415	 -2.357	 -1.291	 -0.005	  0.003	  0.001	 33.300	 99.132	 -0.382
45375	 -0.347	  0.577	  0.228	  9.427	 -2.381	 -1.250	 -0.004	  0.003	 -0.000	 33.300	 99.121	  0.617
45425	 -0.347	  0.578	  0.223	  9.407	 -2.359	 -1.259	 -0.004	  0.003	  0.002	 33.300	 99.121	  0.617
45475	 -0.345	  0.580	  0.230	  9.422	 -2.375	 -1.268	 -0.004	  0.002	  0.002	 33.300	 99.121	  0.617
45525	 -0.349	  0.579	  0.225	  9.393	 -2.368	 -1.258	 -0.004	  0.003	  0.001	 33.300	 99.109	  1.706
45575	 -0.349	  0.574	  0.226	  9.404	 -2.373	 -1.290	 -0.003	  0.004	  0.001	 33.300	 99.121	  0.617
45625	 -0.347	  0.577	  0.222	  9.397	 -2.368	 -1.226	 -0.003	  0.002	  0.000	 33.300	 99.116	  1.071
45675	 -0.346	  0.578	  0.229	  9.422	 -2.371	 -1.223	 -0.004	  0.002	  0.001	 33.300	 99.132	 -0.382
45725	 -0.350	  0.578	  0.227	  9.415	 -2.374	 -1.275	 -0.003	  0.002	  0.001	 33.300	 99.116	  1.071
45775	 -0.347	  0.579	  0.228	  9.421	 -2.360	 -1.253	 -0.004	  0.002	  0.000	 33.300	 99.132	 -0.382
45825	 -0.345	  0.580	  0.228	  9.411	 -2.358	 -1.261	 -0.004	  0.004	 -0.000	 33.300	 99.121	  0.617
45875	 -0.347	  0.579	  0.228	  9.416	 -2.347	 -1.254	 -0.004	  0.003	 -0.001	 33.300	 99.132	 -0.382
45925	 -0.347	  0.576	  0.231	  9.424	 -2.378	 -1.304	 -0.003	  0.004	  0.001	 33.300	 99.136	 -0.744
45975	 -0.349	  0.580	  0.228	  9.430	 -2.365	 -1.241	 -0.002	  0.002	  0.001	 33.300	 99.136	 -0.744
46025	 -0.348	  0.575	  0.229	  9.422	 -2.364	 -1.260	 -0.003	  0.002	  0.001	 33.300	 99.121	  0.617
46075	 -0.347	  0.575	  0.226	  9.402	 -2.375	 -1.288	 -0.002	  0.003	  0.001	 33.300	 99.132	 -0.382
46125	 -0.347	  0.575	  0.228	  9.409	 -2.354	 -1.264	 -0.005	  0.001	 -0.001	 33.300	 99.121	  0.617
46175	 -0.346	  0.576	  0.225	  9.413	 -2.373	 -1.279	 -0.003	  0.002	  0.001	 33.300	 99.121	  0.617
46225	 -0.346	  0.581	  0.229	  9.411	 -2.395	 -1.294	 -0.003	  0.003	  0.000	 33.300	 99.125	  0.254
46275	 -0.346	  0.574	  0.229	  9.426	 -2.365	 -1.289	 -0.003	  0.002	 -0.000	 33.300	 99.125	  0.254
46325	 -0.350	  0.576	  0.221	  9.415	 -2.354	 -1.238	 -0.003	  0.002	  0.001	 33.300	 99.125	  0.254
46375	 -0.348	  0.577	  0.231	  9.413	 -2.377	 -1.288	 -0.004	  0.002	 -0.000	 33.300	 99.132	 -0.382
46425	 -0.347	  0.578	  0.229	  9.419	 -2.358	 -1.282	 -0.003	  0.001	 -0.000	 33.300	 99.125	  0.254
46475	 -0.346	  0.576	  0.225	  9.408	 -2.355	 -1.252	 -0.004	  0.003	  0.000	 33.300	 99.132	 -0.382
46525	 -0.347	  0.576	  0.226	  9.433	 -2.397	 -1.241	 -0.003	  0.003	  0.001	 33.300	 99.121	  0.617
46575	 -0.348	  0.577	  0.224	  9.413	 -2.359	 -1.244	 -0.004	  0.003	  0.001	 33.300	 99.132	 -0.382
46625	 -0.347	  0.575	  0.224	  9.415	 -2.352	 -1.297	 -0.005	  0.003	  0.000	 33.300	 99.121	  0.617
46675	 -0.347	  0.577	  0.228	  9.405	 -2.368	 -1.230	 -0.003	  0.003	 -0.000	 33.300	 99.132	 -0.382
46725	 -0.346	  0.573	  0.225	  9.400	 -2.362	 -1.306	 -0.004	  0.002	 -0.000	 33.300	 99.125	  0.254
46775	 -0.348	  0.583	  0.223	  9.421	 -2.387	 -1.266	 -0.004	  0.004	  0.001	 33.300	 99.125	  0.254
46825	 -0.349	  0.577	  0.227	  9.422	 -2.376	 -1.256	 -0.001	  0.002	  0.001	 33.300	 99.132	 -0.382
46875	 -0.348	  0.579	  0.225	  9.438	 -2.378	 -1.247	 -0.003	  0.002	  0.001	 33.300	 99.109	  1.706
46925	 -0.347	  0.580	  0.228	  9.411	 -2.359	 -1.286	 -0.004	  0.002	 -0.000	 33.300	 99.121	  0.617
46975	 -0.349	  0.580	  0.226	  9.415	 -2.346	 -1.232	 -0.003	  0.003	  0.000	 33.300	 99.132	 -0.382
47025	 -0.347	  0.574	  0.226	  9.431	 -2.359	 -1.281	 -0.004	  0.004	 -0.000	 33.300	 99.121	  0.617
47074	 -0.347	  0.576	  0.226	  9.419	 -2.371	 -1.291	 -0.002	  0.003	  0.001	 33.300	 99.121	  0.617
47124	 -0.349	  0.575	  0.227	  9.410	 -2.380	 -1.284	 -0.003	  0.003	  0.000	 33.300	 99.132	 -0.382
47174	 -0.348	  0.576	  0.229	  9.394	 -2.360	 -1.239	 -0.004	  0.004	  0.000	 33.300	 99.121	  0.617
47224	 -0.348	  0.580	  0.225	  9.401	 -2.364	 -1.271	 -0.004	  0.003	 -0.000	 33.300	 99.121	  0.617
47274	 -0.348	  0.574	  0.226	  9.423	 -2.346	 -1.243	 -0.004	  0.003	 -0.001	 33.300	 99.121	  0.617
47324	 -0.346	  0.579	  0.229	  9.424	 -2.369	 -1.245	 -0.004	  0.002	  0.002	 33.300	 99.136	 -0.744
47374	 -0.349	  0.576	  0.225	  9.410	 -2.373	 -1.257	 -0.004	  0.003	 -0.000	 33.300	 99.121	  0.617
47424	 -0.348	  0.576	  0.225	  9.408	 -2.370	 -1.307	 -0.003	  0.003	 -0.000	 33.300	 99.121	  0.617
47474	 -0.346	  0.576	  0.230	  9.404	 -2.372	 -1.269	 -0.004	  0.003	  0.000	 33.300	 99.132	 -0.382
47524	 -0.348	  0.576	  0.229	  9.403	 -2.345	 -1.260	 -0.004	  0.003	  0.001	 33.300	 99.132	 -0.382
47574	 -0.348	  0.580	  0.224	  9.421	 -2.369	 -1.251	 -0.003	  0.003	  0.000	 33.300	 99.132	 -0.382
47624	 -0.348	  0.576	  0.229	  9.427	 -2.362	 -1.271	 -0.004	  0.002	 -0.000	 33.300	 99.121	  0.617
47674	 -0.350	  0.574	  0.226	  9.416	 -2.374	 -1.274	 -0.004	  0.003	  0.000	 33.300	 99.121	  0.617
47724	 -0.347	  0.577	  0.226	  9.416	 -2.368	 -1.268	 -0.002	  0.003	  0.001	 33.300	 99.132	 -0.382
47774	 -0.347	  0.577	  0.229	  9.390	 -2.368	 -1.262	 -0.004	  0.003	  0.000	 33.300	 99.121	  0.617
47824	 -0.347	  0.576	  0.224	  9.411	 -2.366	 -1.243	 -0.004	  0.005	  0.000	 33.300	 99.132	 -0.382
47874	 -0.350	  0.576	  0.223	  9.428	 -2.356	 -1.282	 -0.002	  0.001	  0.001	 33.300	 99.121	  0.617
47924	 -0.347	  0.576	  0.225	  9.443	 -2.370	 -1.292	 -0.004	  0.003	  0.000	 33.300	 99.121	  0.617
47974	 -0.347	  0.576	  0.229	  9.408	 -2.358	 -1.266	 -0.005	  0.002	  0.001	 33.300	 99.121	  0.617
48024	 -0.348	  0.576	  0.223	  9.416	 -2.359	 -1.254	 -0.003	  0.003	 -0.000	 33.300	 99.132	 -0.382
48074	 -0.348	  0.574	  0.229	  9.423	 -2.386	 -1.248	 -0.004	  0.003	 -0.000	 33.300	 99.125	  0.254
48124	 -0.349	  0.579	  0.224	  9.401	 -2.368	 -1.285	 -0.003	  0.002	  0.001	 33.300	 99.121	  0.617
48174	 -0.349	  0.578	  0.223	  9.427	 -2.369	 -1.284	 -0.003	  0.002	  0.001	 33.300	 99.132	 -0.382
48224	 -0.348	  0.577	  0.232	  9.432	 -2.350	 -1.284	 -0.004	  0.003	  0.001	 33.300	 99.132	 -0.382
48274	 -0.349	  0.575	  0.224	  9.409	 -2.362	 -1.266	 -0.002	  0.003	 -0.001	 33.300	 99.136	 -0.744
48324	 -0.349	  0.573	  0.222	  9.404	 -2.383	 -1.284	 -0.004	  0.003	  0.001	 33.300	 99.121	  0.617
48374	 -0.348	  0.575	  0.231	  9.408	 -2.364	 -1.272	 -0.003	  0.002	 -0.000	 33.300	 99.121	  0.617
48424	 -0.348	  0.577	  0.228	  9.404	 -2.352	 -1.263	 -0.004	  0.003	 -0.000	 33.300	 99.136	 -0.744
48474	 -0.349	  0.577	  0.227	  9.396	 -2.382	 -1.294	 -0.003	  0.004	  0.001	 33.300	 99.121	  0.617
48524	 -0.345	  0.579	  0.228	  9.423	 -2.403	 -1.292	 -0.003	  0.002	  0.002	 33.300	 99.121	  0.617
48574	 -0.349	  0.577	  0.222	  9.422	 -2.364	 -1.250	 -0.004	  0.003	  0.000	 33.300	 99.121	  0.617
48624	 -0.349	  0.575	  0.229	  9.416	 -2.357	 -1.281	 -0.003	  0.001	  0.001	 33.300	 99.132	 -0.382
48674	 -0.346	  0.586	  0.225	  9.402	 -2.362	 -1.241	 -0.004	  0.002	  0.000	 33.300	 99.132	 -0.382
48724	 -0.347	  0.577	  0.223	  9.412	 -2.364	 -1.269	 -0.003	  0.004	  0.001	 33.300	 99.132	 -0.382
48775	 -0.350	  0.582	  0.227	  9.409	 -2.375	 -1.261	 -0.004	  0.004	  0.001	 33.300	 99.121	  0.617
48824	 -0.348	  0.577	  0.225	  9.408	 -2.364	 -1.291	 -0.004	  0.003	  0.001	 33.300	 99.125	  0.254
48875	 -0.345	  0.572	  0.228	  9.407	 -2.375	 -1.270	 -0.004	  0.003	  0.001	 33.300	 99.121	  0.617
48924	 -0.348	  0.577	  0.226	  9.427	 -2.349	 -1.269	 -0.004	  0.003	  0.000	 33.300	 99.125	  0.254
48974	 -0.349	  0.576	  0.225	  9.399	 -2.372	 -1.288	 -0.004	  0.003	  0.001	 33.300	 99.121	  0.617
49025	 -0.349	  0.582	  0.226	  9.412	 -2.376	 -1.260	 -0.004	  0.002	  0.000	 33.300	 99.125	  0.254
49075	 -0.346	  0.580	  0.228	  9.398	 -2.380	 -1.279	 -0.003	  0.002	  0.000	 33.300	 99.136	 -0.744
49125	 -0.347	  0.576	  0.228	  9.408	 -2.341	 -1.262	 -0.003	  0.002	  0.000	 33.300	 99.143	 -1.378
49175	 -0.349	  0.576	  0.230	  9.402	 -2.360	 -1.281	 -0.004	  0.003	 -0.000	 33.300	 99.125	  0.254
49225	 -0.350	  0.576	  0.223	  9.406	 -2.371	 -1.264	 -0.003	  0.002	  0.001	 33.300	 99.121	  0.617
49274	 -0.349	  0.575	  0.224	  9.410	 -2.383	 -1.302	 -0.004	  0.002	  0.001	 33.300	 99.132	 -0.382
49325	 -0.348	  0.578	  0.223	  9.420	 -2.377	 -1.264	 -0.004	  0.002	 -0.001	 33.300	 99.121	  0.617
49375	 -0.346	  0.573	  0.227	  9.411	 -2.363	 -1.273	 -0.002	  0.002	  0.000	 33.300	 99.125	  0.254
49425	 -0.348	  0.575	  0.228	  9.408	 -2.396	 -1.312	 -0.005	  0.004	  0.000	 33.300	 99.132	 -0.382
49475	 -0.346	  0.579	  0.229	  9.426	 -2.371	 -1.260	 -0.004	  0.002	  0.001	 33.300	 99.121	  0.617
49525	 -0.350	  0.575	  0.231	  9.423	 -2.383	 -1.252	 -0.003	  0.001	  0.000	 33.300	 99.121	  0.617
49575	 -0.345	  0.574	  0.227	  9.419	 -2.369	 -1.279	 -0.002	  0.004	  0.001	 33.300	 99.121	  0.617
49625	 -0.348	  0.575	  0.228	  9.397	 -2.368	 -1.287	 -0.003	  0.002	 -0.001	 33.300	 99.121	  0.617
49675	 -0.348	  0.578	  0.229	  9.427	 -2.381	 -1.265	 -0.005	  0.002	  0.000	 33.300	 99.136	 -0.744
49725	 -0.356	  0.602	  0.243	  9.454	 -2.387	 -1.320	 -0.002	  0.002	 -0.001	 33.300	 99.132	 -0.382
49775	 -0.348	  0.577	  0.230	  9.395	 -2.441	 -1.280	 -0.005	  0.002	  0.002	 33.300	 99.121	  0.617
49825	 -0.348	  0.580	  0.229	  9.379	 -2.265	 -1.199	 -0.000	  0.002	  0.004	 33.300	 99.132	 -0.382
49875	 -0.348	  0.580	  0.227	  9.394	 -2.363	 -1.308	 -0.005	  0.001	  0.001	 33.300	 99.132	 -0.382
49925	 -0.350	  0.574	  0.227	  9.416	 -2.345	 -1.192	 -0.003	  0.001	  0.001	 33.300	 99.136	 -0.744
49975	 -0.346	  0.577	  0.230	  9.406	 -2.372	 -1.244	 -0.004	  0.002	 -0.001	 33.300	 99.113	  1.343
50025	 -0.345	  0.578	  0.229	  9.416	 -2.382	 -1.235	 -0.004	  0.001	  0.000	 33.300	 99.125	  0.254
50075	 -0.347	  0.577	  0.230	  9.400	 -2.364	 -1.284	 -0.003	  0.002	  0.001	 33.300	 99.136	 -0.744
50125	 -0.348	  0.579	  0.226	  9.428	 -2.374	 -1.259	 -0.003	  0.003	  0.000	 33.300	 99.121	  0.617
50175	 -0.348	  0.572	  0.225	  9.425	 -2.362	 -1.281	 -0.003	  0.002	  0.001	 33.300	 99.121	  0.617
50225	 -0.348	  0.577	  0.224	  9.432	 -2.375	 -1.261	 -0.002	  0.001	  0.001	 33.300	 99.125	  0.254
50275	 -0.346	  0.576	  0.229	  9.386	 -2.378	 -1.279	 -0.003	  0.004	  0.000	 33.300	 99.121	  0.617
50325	 -0.346	  0.579	  0.229	  9.399	 -2.364	 -1.270	 -0.003	  0.002	 -0.001	 33.300	 99.132	 -0.382
50375	 -0.346	  0.579	  0.230	  9.414	 -2.362	 -1.272	 -0.004	  0.002	  0.001	 33.300	 99.125	  0.254
50425	 -0.347	  0.575	  0.231	  9.387	 -2.378	 -1.295	 -0.004	  0.003	  0.001	 33.300	 99.121	  0.617
50475	 -0.349	  0.577	  0.222	  9.399	 -2.358	 -1.279	 -0.003	  0.002	  0.001	 33.300	 99.147	 -1.742
50525	 -0.350	  0.573	  0.225	  9.430	 -2.368	 -1.269	 -0.003	  0.002	  0.001	 33.300	 99.132	 -0.382
50575	 -0.348	  0.576	  0.230	  9.412	 -2.358	 -1.264	 -0.003	  0.002	 -0.000	 33.300	 99.109	  1.706
50625	 -0.346	  0.578	  0.231	  9.415	 -2.354	 -1.258	 -0.003	  0.002	 -0.001	 33.300	 99.109	  1.706
50675	 -0.348	  0.579	  0.227	  9.410	 -2.354	 -1.267	 -0.004	  0.002	  0.001	 33.300	 99.132	 -0.382
50725	 -0.346	  0.579	  0.226	  9.423	 -2.360	 -1.286	 -0.003	  0.002	  0.001	 33.300	 99.132	 -0.382
50775	 -0.346	  0.576	  0.229	  9.401	 -2.344	 -1.255	 -0.003	  0.003	  0.000	 33.300	 99.132	 -0.382
50825	 -0.348	  0.575	  0.225	  9.445	 -2.346	 -1.225	 -0.004	  0.002	  0.000	 33.300	 99.121	  0.617
50875	 -0.347	  0.580	  0.228	  9.421	 -2.368	 -1.281	 -0.003	  0.003	  0.001	 33.300	 99.125	  0.254
50925	 -0.346	  0.581	  0.226	  9.413	 -2.370	 -1.256	 -0.004	  0.003	 -0.001	 33.300	 99.109	  1.706
50975	 -0.347	  0.576	  0.225	  9.383	 -2.363	 -1.271	 -0.004	  0.001	  0.000	 33.300	 99.136	 -0.744
51025	 -0.347	  0.574	  0.224	  9.419	 -2.360	 -1.267	 -0.003	  0.003	 -0.000	 33.300	 99.136	 -0.744
51075	 -0.346	  0.577	  0.232	  9.407	 -2.370	 -1.267	 -0.005	  0.003	  0.001	 33.300	 99.125	  0.254
51125	 -0.347	  0.578	  0.228	  9.404	 -2.376	 -1.263	 -0.004	  0.002	  0.001	 33.300	 99.136	 -0.744
51175	 -0.346	  0.579	  0.229	  9.420	 -2.376	 -1.287	 -0.003	  0.003	 -0.000	 33.300	 99.125	  0.254
51225	 -0.347	  0.577	  0.228	  9.416	 -2.362	 -1.271	 -0.003	  0.004	  0.000	 33.300	 99.136	 -0.744
51275	 -0.346	  0.575	  0.230	  9.400	 -2.365	 -1.252	 -0.005	  0.004	  0.000	 33.300	 99.125	  0.254
51325	 -0.348	  0.575	  0.229	  9.446	 -2.378	 -1.252	 -0.003	  0.003	  0.001	 33.300	 99.136	 -0.744
51375	 -0.345	  0.578	  0.228	  9.421	 -2.372	 -1.280	 -0.003	  0.002	  0.001	 33.300	 99.121	  0.617
51425	 -0.349	  0.576	  0.227	  9.394	 -2.356	 -1.272	 -0.004	  0.003	  0.001	 33.300	 99.121	  0.617
51475	 -0.349	  0.581	  0.219	  9.424	 -2.371	 -1.261	 -0.003	  0.002	  0.001	 33.300	 99.121	  0.617
51525	 -0.344	  0.576	  0.227	  9.430	 -2.377	 -1.273	 -0.004	  0.002	  0.001	 33.300	 99.121	  0.617
51575	 -0.349	  0.578	  0.230	  9.409	 -2.362	 -1.286	 -0.004	  0.002	  0.001	 33.300	 99.121	  0.617
51625	 -0.348	  0.577	  0.224	  9.386	 -2.388	 -1.262	 -0.003	  0.002	  0.001	 33.300	 99.121	  0.617
51674	 -0.348	  0.577	  0.229	  9.415	 -2.375	 -1.275	 -0.003	  0.002	  0.000	 33.300	 99.136	 -0.744
51724	 -0.346	  0.577	  0.230	  9.410	 -2.378	 -1.265	 -0.004	  0.003	  0.000	 33.300	 99.121	  0.617
51774	 -0.348	  0.580	  0.227	  9.409	 -2.365	 -1.273	 -0.001	  0.004	 -0.000	 33.300	 99.121	  0.617
51824	 -0.349	  0.576	  0.231	  9.433	 -2.370	 -1.251	 -0.003	  0.002	  0.000	 33.300	 99.136	 -0.744
51874	 -0.346	  0.580	  0.229	  9.401	 -2.378	 -1.265	 -0.004	  0.003	 -0.000	 33.300	 99.132	 -0.382
51924	 -0.347	  0.579	  0.229	  9.414	 -2.362	 -1.267	 -0.003	  0.004	  0.001	 33.300	 99.125	  0.254
51974	 -0.350	  0.575	  0.225	  9.421	 -2.376	 -1.270	 -0.002	  0.002	 -0.000	 33.300	 99.109	  1.706
52024	 -0.347	  0.582	  0.228	  9.412	 -2.360	 -1.244	 -0.003	  0.002	 -0.000	 33.300	 99.121	  0.617
52074	 -0.347	  0.586	  0.225	  9.407	 -2.379	 -1.250	 -0.003	  0.003	  0.000	 33.300	 99.125	  0.254
52124	 -0.346	  0.581	  0.232	  9.408	 -2.381	 -1.291	 -0.004	  0.004	  0.000	 33.300	 99.125	  0.254
52174	 -0.349	  0.578	  0.224	  9.404	 -2.381	 -1.264	 -0.003	  0.003	 -0.001	 33.300	 99.132	 -0.382
52224	 -0.346	  0.576	  0.226	  9.420	 -2.365	 -1.237	 -0.004	  0.002	 -0.000	 33.300	 99.132	 -0.382
52274	 -0.347	  0.580	  0.231	  9.395	 -2.382	 -1.270	 -0.004	  0.003	  0.002	 33.300	 99.125	  0.254
52324	 -0.345	  0.579	  0.229	  9.402	 -2.375	 -1.299	 -0.004	  0.002	  0.000	 33.300	 99.121	  0.617
52374	 -0.347	  0.581	  0.229	  9.386	 -2.367	 -1.257	 -0.002	  0.002	  0.001	 33.300	 99.109	  1.706
52424	 -0.348	  0.578	  0.230	  9.411	 -2.365	 -1.253	 -0.003	  0.002	  0.001	 33.300	 99.132	 -0.382
52474	 -0.348	  0.581	  0.226	  9.413	 -2.353	 -1.271	 -0.003	  0.002	  0.000	 33.300	 99.136	 -0.744
52524	 -0.348	  0.580	  0.229	  9.430	 -2.365	 -1.268	 -0.004	  0.002	  0.000	 33.300	 99.132	 -0.382
52574	 -0.347	  0.577	  0.228	  9.415	 -2.388	 -1.290	 -0.002	  0.002	 -0.000	 33.300	 99.125	  0.254
52624	 -0.348	  0.580	  0.233	  9.393	 -2.366	 -1.272	 -0.003	  0.001	  0.001	 33.300	 99.121	  0.617
52674	 -0.348	  0.577	  0.229	  9.436	 -2.389	 -1.276	 -0.005	  0.003	 -0.001	 33.300	 99.136	 -0.744
52724	 -0.348	  0.576	  0.228	  9.421	 -2.357	 -1.227	 -0.003	  0.002	 -0.001	 33.300	 99.132	 -0.382
52774	 -0.346	  0.579	  0.229	  9.424	 -2.358	 -1.238	 -0.004	  0.003	  0.000	 33.300	 99.132	 -0.382
52824	 -0.347	  0.578	  0.229	  9.400	 -2.375	 -1.268	 -0.003	  0.002	  0.001	 33.300	 99.125	  0.254
52874	 -0.348	  0.574	  0.229	  9.434	 -2.365	 -1.304	 -0.003	  0.003	 -0.000	 33.300	 99.132	 -0.382
52924	 -0.346	  0.577	  0.222	  9.393	 -2.374	 -1.283	 -0.005	  0.002	  0.001	 33.300	 99.125	  0.254
52974	 -0.349	  0.574	  0.223	  9.400	 -2.352	 -1.286	 -0.003	  0.003	  0.000	 33.300	 99.132	 -0.382
53024	 -0.345	  0.579	  0.228	  9.420	 -2.397	 -1.274	 -0.006	  0.003	 -0.001	 33.300	 99.121	  0.617
53074	 -0.345	  0.578	  0.227	  9.411	 -2.365	 -1.268	 -0.003	  0.002	 -0.001	 33.300	 99.121	  0.617
53124	 -0.347	  0.577	  0.229	  9.396	 -2.365	 -1.290	 -0.003	  0.003	  0.001	 33.300	 99.132	 -0.382
53174	 -0.348	  0.580	  0.227	  9.412	 -2.355	 -1.264	 -0.003	  0.002	  0.000	 33.300	 99.132	 -0.382
53224	 -0.347	  0.574	  0.224	  9.407	 -2.362	 -1.281	 -0.003	  0.002	  0.001	 33.300	 99.125	  0.254
53274	 -0.347	  0.586	  0.226	  9.409	 -2.396	 -1.275	 -0.003	  0.003	  0.001	 33.300	 99.121	  0.617
53324	 -0.344	  0.576	  0.230	  9.406	 -2.356	 -1.276	 -0.003	  0.003	  0.001	 33.300	 99.125	  0.254
53374	 -0.348	  0.576	  0.229	  9.397	 -2.379	 -1.278	 -0.004	  0.002	  0.001	 33.300	 99.121	  0.617
53424	 -0.348	  0.575	  0.228	  9.405	 -2.361	 -1.261	 -0.003	  0.002	 -0.000	 33.300	 99.121	  0.617
53474	 -0.350	  0.575	  0.224	  9.424	 -2.371	 -1.228	 -0.003	  0.003	  0.001	 33.300	 99.121	  0.617
53524	 -0.347	  0.582	  0.228	  9.389	 -2.373	 -1.298	 -0.003	  0.002	  0.000	 33.300	 99.121	  0.617
53574	 -0.347	  0.584	  0.227	  9.418	 -2.345	 -1.246	 -0.004	  0.003	  0.001	 33.300	 99.132	 -0.382
53624	 -0.349	  0.578	  0.222	  9.419	 -2.359	 -1.279	 -0.003	  0.004	 -0.000	 33.300	 99.121	  0.617
53674	 -0.347	  0.576	  0.232	  9.400	 -2.353	 -1.268	 -0.003	  0.003	  0.000	 33.300	 99.136	 -0.744
53724	 -0.347	  0.572	  0.228	  9.396	 -2.385	 -1.279	 -0.004	  0.002	  0.002	 33.300	 99.121	  0.617
53774	 -0.347	  0.574	  0.231	  9.409	 -2.361	 -1.255	 -0.002	  0.003	 -0.000	 33.300	 99.121	  0.617
53824	 -0.349	  0.580	  0.227	  9.414	 -2.366	 -1.260	 -0.004	  0.002	  0.001	 33.300	 99.136	 -0.744
53874	 -0.349	  0.576	  0.222	  9.406	 -2.329	 -1.242	 -0.005	  0.003	 -0.000	 33.300	 99.125	  0.254
53924	 -0.348	  0.577	  0.229	  9.414	 -2.362	 -1.274	 -0.002	  0.004	  0.000	 33.300	 99.121	  0.617
53974	 -0.349	  0.576	  0.227	  9.396	 -2.349	 -1.289	 -0.003	  0.002	 -0.000	 33.300	 99.132	 -0.382
54024	 -0.347	  0.579	  0.230	  9.400	 -2.365	 -1.266	 -0.002	  0.003	  0.000	 33.300	 99.125	  0.254
54074	 -0.346	  0.576	  0.228	  9.411	 -2.374	 -1.282	 -0.003	  0.004	  0.001	 33.300	 99.125	  0.254
54124	 -0.346	  0.575	  0.231	  9.413	 -2.362	 -1.295	 -0.003	  0.003	  0.001	 33.300	 99.121	  0.617
54174	 -0.347	  0.577	  0.224	  9.415	 -2.352	 -1.245	 -0.002	  0.003	  0.001	 33.300	 99.125	  0.254
54224	 -0.347	  0.577	  0.230	  9.426	 -2.352	 -1.281	 -0.003	  0.003	  0.000	 33.300	 99.121	  0.617
54274	 -0.348	  0.579	  0.229	  9.412	 -2.372	 -1.268	 -0.003	  0.002	 -0.001	 33.300	 99.136	 -0.744
54324	 -0.348	  0.575	  0.223	  9.411	 -2.359	 -1.255	 -0.002	  0.004	  0.000	 33.300	 99.109	  1.706
54374	 -0.348	  0.583	  0.228	  9.400	 -2.348	 -1.256	 -0.002	  0.002	  0.000	 33.300	 99.125	  0.254
54424	 -0.347	  0.574	  0.228	  9.401	 -2.357	 -1.287	 -0.003	  0.003	  0.001	 33.300	 99.136	 -0.744
54474	 -0.347	  0.577	  0.229	  9.420	 -2.375	 -1.270	 -0.004	  0.003	  0.001	 33.300	 99.121	  0.617
54525	 -0.348	  0.578	  0.229	  9.436	 -2.369	 -1.274	 -0.003	  0.003	 -0.001	 33.300	 99.132	 -0.382
54574	 -0.348	  0.577	  0.232	  9.436	 -2.383	 -1.273	 -0.004	  0.001	  0.000	 33.300	 99.125	  0.254
54625	 -0.348	  0.580	  0.230	  9.393	 -2.384	 -1.293	 -0.003	  0.003	 -0.000	 33.300	 99.109	  1.706
54675	 -0.348	  0.575	  0.230	  9.415	 -2.391	 -1.305	 -0.004	  0.003	  0.001	 33.300	 99.132	 -0.382
54725	 -0.347	  0.585	  0.224	  9.440	 -2.375	 -1.283	 -0.003	  0.002	  0.001	 33.300	 99.136	 -0.744
54775	 -0.345	  0.574	  0.229	  9.425	 -2.350	 -1.277	 -0.003	  0.003	 -0.000	 33.300	 99.121	  0.617
54825	 -0.349	  0.578	  0.227	  9.426	 -2.379	 -1.234	 -0.003	  0.003	  0.001	 33.300	 99.136	 -0.744
54875	 -0.347	  0.580	  0.232	  9.430	 -2.379	 -1.283	 -0.003	  0.003	 -0.000	 33.300	 99.121	  0.617
54924	 -0.348	  0.581	  0.230	  9.391	 -2.377	 -1.234	 -0.003	  0.004	 -0.000	 33.300	 99.132	 -0.382
54975	 -0.346	  0.579	  0.228	  9.437	 -2.386	 -1.304	 -0.003	  0.002	  0.000	 33.300	 99.121	  0.617
55025	 -0.346	  0.574	  0.230	  9.418	 -2.366	 -1.236	 -0.004	  0.002	  0.000	 33.300	 99.125	  0.254
55075	 -0.348	  0.581	  0.230	  9.403	 -2.383	 -1.278	 -0.003	  0.003	  0.001	 33.300	 99.132	 -0.382
55125	 -0.345	  0.574	  0.229	  9.427	 -2.358	 -1.248	 -0.004	  0.003	  0.000	 33.300	 99.121	  0.617
55175	 -0.348	  0.574	  0.228	  9.420	 -2.362	 -1.282	 -0.004	  0.003	  0.000	 33.300	 99.125	  0.254
55225	 -0.348	  0.577	  0.226	  9.420	 -2.378	 -1.240	 -0.002	  0.003	  0.001	 33.300	 99.136	 -0.744
55275	 -0.349	  0.573	  0.226	  9.393	 -2.367	 -1.269	 -0.005	  0.002	 -0.000	 33.300	 99.121	  0.617
55325	 -0.344	  0.575	  0.229	  9.420	 -2.352	 -1.283	 -0.003	  0.002	  0.001	 33.300	 99.125	  0.254
55375	 -0.344	  0.578	  0.230	  9.436	 -2.386	 -1.238	 -0.004	  0.003	 -0.001	 33.300	 99.132	 -0.382
55425	 -0.348	  0.576	  0.228	  9.413	 -2.356	 -1.223	 -0.003	  0.003	 -0.000	 33.300	 99.125	  0.254
55475	 -0.347	  0.575	  0.228	  9.384	 -2.364	 -1.257	 -0.004	  0.002	 -0.000	 33.300	 99.132	 -0.382
55525	 -0.348	  0.576	  0.224	  9.399	 -2.358	 -1.236	 -0.005	  0.002	 -0.000	 33.300	 99.121	  0.617
55575	 -0.349	  0.573	  0.231	  9.413	 -2.373	 -1.269	 -0.005	  0.002	  0.000	 33.300	 99.125	  0.254
55625	 -0.349	  0.575	  0.226	  9.401	 -2.363	 -1.254	 -0.002	  0.002	  0.001	 33.300	 99.121	  0.617
55675	 -0.348	  0.573	  0.225	  9.400	 -2.391	 -1.275	 -0.002	  0.002	  0.000	 33.300	 99.121	  0.617
55725	 -0.348	  0.577	  0.229	  9.418	 -2.357	 -1.272	 -0.002	  0.003	 -0.000	 33.300	 99.136	 -0.744
55775	 -0.346	  0.569	  0.231	  9.395	 -2.373	 -1.274	 -0.005	  0.002	  0.000	 33.300	 99.132	 -0.382
55825	 -0.347	  0.576	  0.225	  9.446	 -2.353	 -1.253	 -0.002	  0.003	  0.001	 33.300	 99.121	  0.617
55875	 -0.347	  0.581	  0.230	  9.398	 -2.370	 -1.283	 -0.004	  0.003	  0.001	 33.300	 99.125	  0.254
55925	 -0.347	  0.576	  0.231	  9.415	 -2.349	 -1.244	 -0.005	  0.003	  0.001	 33.300	 99.121	  0.617
55975	 -0.347	  0.578	  0.230	  9.395	 -2.365	 -1.266	 -0.004	  0.001	  0.000	 33.300	 99.136	 -0.744
56025	 -0.348	  0.572	  0.232	  9.432	 -2.360	 -1.280	 -0.003	  0.002	 -0.000	 33.300	 99.136	 -0.744
56075	 -0.346	  0.584	  0.231	  9.413	 -2.359	 -1.220	 -0.005	  0.003	  0.000	 33.300	 99.136	 -0.744
56125	 -0.348	  0.580	  0.229	  9.411	 -2.370	 -1.260	 -0.002	  0.003	  0.000	 33.300	 99.125	  0.254
56175	 -0.347	  0.573	  0.230	  9.435	 -2.390	 -1.279	 -0.003	  0.002	  0.001	 33.300	 99.136	 -0.744
56225	 -0.347	  0.572	  0.233	  9.430	 -2.365	 -1.254	 -0.003	  0.003	 -0.000	 33.300	 99.121	  0.617
56275	 -0.348	  0.574	  0.229	  9.430	 -2.383	 -1.250	 -0.004	  0.002	 -0.000	 33.300	 99.121	  0.617
56325	 -0.346	  0.577	  0.232	  9.418	 -2.383	 -1.255	 -0.004	  0.001	 -0.000	 33.300	 99.136	 -0.744
56375	 -0.345	  0.574	  0.230	  9.405	 -2.402	 -1.242	 -0.003	  0.003	 -0.000	 33.300	 99.136	 -0.744
56425	 -0.347	  0.577	  0.225	  9.402	 -2.377	 -1.261	 -0.003	  0.003	 -0.000	 33.300	 99.109	  1.706
56475	 -0.346	  0.578	  0.232	  9.413	 -2.336	 -1.282	 -0.004	  0.003	  0.000	 33.300	 99.147	 -1.742
56525	 -0.350	  0.577	  0.226	  9.389	 -2.350	 -1.275	 -0.003	  0.001	  0.001	 33.300	 99.121	  0.617
56575	 -0.347	  0.574	  0.231	  9.423	 -2.352	 -1.285	 -0.003	  0.003	  0.000	 33.300	 99.125	  0.254
56625	 -0.349	  0.577	  0.226	  9.409	 -2.402	 -1.283	 -0.003	  0.003	  0.001	 33.300	 99.125	  0.254
56675	 -0.346	  0.574	  0.229	  9.430	 -2.385	 -1.234	 -0.004	  0.003	  0.001	 33.300	 99.125	  0.254
56725	 -0.346	  0.574	  0.226	  9.425	 -2.372	 -1.268	 -0.002	  0.002	  0.000	 33.300	 99.125	  0.254
56775	 -0.349	  0.574	  0.230	  9.417	 -2.364	 -1.285	 -0.005	  0.003	 -0.000	 33.300	 99.125	  0.254
56825	 -0.346	  0.574	  0.228	  9.418	 -2.368	 -1.285	 -0.004	  0.002	 -0.000	 33.300	 99.125	  0.254
56875	 -0.345	  0.579	  0.230	  9.420	 -2.369	 -1.270	 -0.004	  0.002	 -0.001	 33.300	 99.121	  0.617
56925	 -0.347	  0.575	  0.228	  9.419	 -2.373	 -1.295	 -0.003	  0.003	  0.000	 33.300	 99.125	  0.254
56975	 -0.346	  0.575	  0.229	  9.424	 -2.387	 -1.260	 -0.003	  0.002	  0.000	 33.300	 99.136	 -0.744
57025	 -0.349	  0.573	  0.227	  9.423	 -2.372	 -1.270	 -0.003	  0.003	  0.001	 33.300	 99.132	 -0.382
57075	 -0.348	  0.577	  0.232	  9.430	 -2.352	 -1.281	 -0.003	  0.003	 -0.000	 33.300	 99.136	 -0.744
57125	 -0.349	  0.571	  0.229	  9.414	 -2.361	 -1.271	 -0.003	  0.002	  0.002	 33.300	 99.125	  0.254
57175	 -0.349	  0.576	  0.223	  9.431	 -2.367	 -1.300	 -0.004	  0.002	  0.001	 33.300	 99.136	 -0.744
57225	 -0.349	  0.576	  0.230	  9.422	 -2.375	 -1.286	 -0.003	  0.003	  0.000	 33.300	 99.125	  0.254
57275	 -0.350	  0.581	  0.228	  9.397	 -2.359	 -1.263	 -0.004	  0.004	  0.001	 33.300	 99.121	  0.617
57325	 -0.349	  0.570	  0.231	  9.401	 -2.362	 -1.290	 -0.003	  0.002	  0.001	 33.300	 99.121	  0.617
57375	 -0.347	  0.574	  0.225	  9.404	 -2.353	 -1.289	 -0.003	  0.004	  0.000	 33.300	 99.121	  0.617
57425	 -0.347	  0.575	  0.230	  9.442	 -2.378	 -1.305	 -0.005	  0.002	  0.001	 33.300	 99.136	 -0.744
57475	 -0.350	  0.573	  0.227	  9.415	 -2.367	 -1.246	 -0.004	  0.003	  0.001	 33.300	 99.136	 -0.744
57525	 -0.349	  0.574	  0.232	  9.423	 -2.358	 -1.272	 -0.002	  0.003	  0.001	 33.300	 99.125	  0.254
57575	 -0.347	  0.574	  0.231	  9.429	 -2.373	 -1.279	 -0.003	  0.003	  0.000	 33.300	 99.125	  0.254
57625	 -0.350	  0.578	  0.228	  9.389	 -2.360	 -1.251	 -0.003	  0.003	  0.001	 33.300	 99.121	  0.617
57675	 -0.347	  0.572	  0.230	  9.411	 -2.369	 -1.279	 -0.004	  0.001	 -0.000	 33.300	 99.125	  0.254
57725	 -0.348	  0.581	  0.230	  9.418	 -2.372	 -1.272	 -0.004	  0.003	  0.001	 33.300	 99.121	  0.617
57775	 -0.347	  0.574	  0.226	  9.404	 -2.356	 -1.242	 -0.004	  0.002	  0.001	 33.300	 99.132	 -0.382
57825	 -0.348	  0.577	  0.231	  9.407	 -2.391	 -1.247	 -0.004	  0.004	  0.000	 33.300	 99.136	 -0.744
57875	 -0.349	  0.575	  0.231	  9.396	 -2.364	 -1.228	 -0.003	  0.002	 -0.000	 33.300	 99.125	  0.254
57925	 -0.348	  0.575	  0.232	  9.411	 -2.390	 -1.323	 -0.004	  0.003	 -0.000	 33.300	 99.136	 -0.744
57975	 -0.349	  0.576	  0.225	  9.419	 -2.355	 -1.283	 -0.004	  0.003	  0.000	 33.300	 99.136	 -0.744
58025	 -0.345	  0.575	  0.230	  9.378	 -2.368	 -1.262	 -0.004	  0.002	  0.001	 33.300	 99.136	 -0.744
58075	 -0.348	  0.575	  0.228	  9.404	 -2.370	 -1.257	 -0.003	  0.003	  0.001	 33.300	 99.113	  1.343
58125	 -0.347	  0.577	  0.231	  9.408	 -2.366	 -1.285	 -0.003	  0.003	  0.001	 33.300	 99.125	  0.254
58175	 -0.347	  0.577	  0.226	  9.406	 -2.376	 -1.260	 -0.004	  0.002	  0.001	 33.300	 99.136	 -0.744
58225	 -0.348	  0.576	  0.233	  9.409	 -2.357	 -1.274	 -0.004	  0.004	  0.001	 33.300	 99.125	  0.254
58275	 -0.347	  0.572	  0.230	  9.422	 -2.377	 -1.278	 -0.004	  0.002	  0.000	 33.300	 99.121	  0.617
58325	 -0.348	  0.578	  0.230	  9.424	 -2.403	 -1.270	 -0.004	  0.001	 -0.000	 33.300	 99.125	  0.254
58375	 -0.347	  0.574	  0.231	  9.401	 -2.377	 -1.289	 -0.004	  0.003	  0.000	 33.300	 99.125	  0.254
58425	 -0.349	  0.577	  0.233	  9.415	 -2.394	 -1.257	 -0.003	  0.003	  0.001	 33.300	 99.125	  0.254
58475	 -0.349	  0.580	  0.230	  9.415	 -2.351	 -1.280	 -0.003	  0.003	  0.001	 33.300	 99.125	  0.254
58525	 -0.349	  0.574	  0.231	  9.408	 -2.361	 -1.281	 -0.003	  0.003	  0.001	 33.300	 99.132	 -0.382
58575	 -0.348	  0.575	  0.230	  9.419	 -2.379	 -1.292	 -0.002	  0.003	 -0.001	 33.300	 99.136	 -0.744
58625	 -0.350	  0.575	  0.230	  9.429	 -2.385	 -1.267	 -0.004	  0.003	  0.000	 33.300	 99.132	 -0.382
58675	 -0.346	  0.575	  0.232	  9.413	 -2.360	 -1.286	 -0.003	  0.002	  0.000	 33.300	 99.125	  0.254
58724	 -0.350	  0.574	  0.228	  9.424	 -2.365	 -1.286	 -0.002	  0.004	  0.000	 33.300	 99.125	  0.254
58774	 -0.348	  0.571	  0.231	  9.413	 -2.369	 -1.292	 -0.003	  0.003	  0.000	 33.300	 99.136	 -0.744
58824	 -0.348	  0.576	  0.231	  9.424	 -2.387	 -1.288	 -0.004	  0.002	  0.001	 33.300	 99.121	  0.617
58874	 -0.349	  0.572	  0.231	  9.416	 -2.364	 -1.251	 -0.004	  0.001	  0.001	 33.300	 99.121	  0.617
58924	 -0.349	  0.576	  0.232	  9.413	 -2.373	 -1.285	 -0.005	  0.003	  0.000	 33.300	 99.136	 -0.744
58974	 -0.349	  0.576	  0.230	  9.396	 -2.396	 -1.245	 -0.003	  0.002	 -0.000	 33.300	 99.125	  0.254
59024	 -0.349	  0.574	  0.227	  9.415	 -2.361	 -1.259	 -0.004	  0.001	  0.001	 33.300	 99.136	 -0.744
59075	 -0.348	  0.580	  0.233	  9.407	 -2.345	 -1.278	 -0.004	  0.003	  0.000	 33.300	 99.125	  0.254
59124	 -0.349	  0.578	  0.231	  9.408	 -2.358	 -1.258	 -0.004	  0.002	 -0.000	 33.300	 99.136	 -0.744
59174	 -0.350	  0.576	  0.227	  9.395	 -2.379	 -1.270	 -0.003	  0.002	 -0.001	 33.300	 99.132	 -0.382
59224	 -0.348	  0.580	  0.232	  9.408	 -2.360	 -1.289	 -0.004	  0.001	 -0.001	 33.300	 99.125	  0.254
59274	 -0.348	  0.582	  0.232	  9.402	 -2.368	 -1.250	 -0.004	  0.003	  0.001	 33.300	 99.125	  0.254
59324	 -0.348	  0.573	  0.233	  9.398	 -2.362	 -1.274	 -0.004	  0.004	  0.001	 33.300	 99.125	  0.254
59374	 -0.348	  0.577	  0.229	  9.400	 -2.363	 -1.252	 -0.004	  0.002	  0.000	 33.300	 99.125	  0.254
59424	 -0.347	  0.575	  0.229	  9.409	 -2.393	 -1.282	 -0.004	  0.002	  0.001	 33.300	 99.125	  0.254
59474	 -0.347	  0.578	  0.231	  9.411	 -2.359	 -1.305	 -0.004	  0.004	  0.001	 33.300	 99.136	 -0.744
59524	 -0.348	  0.575	  0.229	  9.399	 -2.376	 -1.268	 -0.002	  0.002	  0.001	 33.300	 99.125	  0.254
59574	 -0.346	  0.577	  0.232	  9.387	 -2.381	 -1.295	 -0.003	  0.003	  0.000	 33.300	 99.125	  0.254
59624	 -0.349	  0.578	  0.234	  9.415	 -2.374	 -1.270	 -0.004	  0.004	  0.000	 33.300	 99.113	  1.343
59674	 -0.347	  0.575	  0.231	  9.423	 -2.356	 -1.269	 -0.004	  0.002	 -0.000	 33.300	 99.125	  0.254
59724	 -0.350	  0.577	  0.233	  9.414	 -2.370	 -1.258	 -0.003	  0.002	  0.000	 33.300	 99.125	  0.254
59774	 -0.345	  0.575	  0.227	  9.403	 -2.361	 -1.270	 -0.003	  0.003	  0.002	 33.300	 99.136	 -0.744
59824	 -0.349	  0.574	  0.226	  9.386	 -2.365	 -1.270	 -0.004	  0.003	  0.000	 33.300	 99.125	  0.254
59875	 -0.348	  0.572	  0.231	  9.414	 -2.370	 -1.260	 -0.003	  0.004	  0.001	 33.300	 99.113	  1.343
59925	 -0.347	  0.576	  0.231	  9.419	 -2.357	 -1.271	 -0.004	  0.003	  0.000	 33.300	 99.113	  1.343
59974	 -0.346	  0.576	  0.231	  9.387	 -2.361	 -1.269	 -0.005	  0.001	  0.000	 33.300	 99.125	  0.254
60025	 -0.347	  0.579	  0.229	  9.383	 -2.380	 -1.260	 -0.003	  0.002	  0.001	 33.300	 99.132	 -0.382
60075	 -0.348	  0.573	  0.231	  9.417	 -2.349	 -1.296	 -0.002	  0.003	 -0.001	 33.300	 99.136	 -0.744
60125	 -0.349	  0.575	  0.231	  9.419	 -2.372	 -1.254	 -0.003	  0.001	  0.000	 33.300	 99.125	  0.254
60175	 -0.348	  0.572	  0.229	  9.423	 -2.364	 -1.307	 -0.002	  0.002	  0.001	 33.300	 99.125	  0.254
60225	 -0.351	  0.576	  0.230	  9.385	 -2.354	 -1.240	 -0.004	  0.003	 -0.000	 33.300	 99.125	  0.254
60275	 -0.349	  0.576	  0.231	  9.448	 -2.355	 -1.279	 -0.003	  0.003	  0.000	 33.300	 99.132	 -0.382
60325	 -0.350	  0.576	  0.230	  9.423	 -2.379	 -1.277	 -0.004	  0.002	  0.000	 33.300	 99.125	  0.254
60375	 -0.350	  0.573	  0.226	  9.397	 -2.373	 -1.281	 -0.004	  0.003	  0.000	 33.300	 99.125	  0.254
60425	 -0.349	  0.577	  0.226	  9.427	 -2.360	 -1.227	 -0.003	  0.003	 -0.000	 33.300	 99.125	  0.254
60475	 -0.347	  0.575	  0.232	  9.412	 -2.409	 -1.251	 -0.004	  0.002	 -0.000	 33.300	 99.113	  1.343
60525	 -0.347	  0.578	  0.232	  9.404	 -2.355	 -1.279	 -0.003	  0.003	  0.001	 33.300	 99.136	 -0.744
60575	 -0.350	  0.583	  0.228	  9.421	 -2.384	 -1.297	 -0.005	  0.004	  0.001	 33.300	 99.125	  0.254
60625	 -0.350	  0.574	  0.230	  9.409	 -2.354	 -1.254	 -0.002	  0.003	  0.000	 33.300	 99.125	  0.254
60675	 -0.348	  0.577	  0.225	  9.408	 -2.357	 -1.253	 -0.003	  0.004	 -0.000	 33.300	 99.125	  0.254
60725	 -0.347	  0.576	  0.230	  9.427	 -2.356	 -1.273	 -0.004	  0.002	  0.000	 33.300	 99.125	  0.254
60775	 -0.347	  0.577	  0.230	  9.417	 -2.393	 -1.243	 -0.003	  0.002	  0.000	 33.300	 99.125	  0.254
60825	 -0.348	  0.577	  0.231	  9.410	 -2.335	 -1.254	 -0.003	  0.003	 -0.000	 33.300	 99.125	  0.254
60875	 -0.350	  0.573	  0.230	  9.434	 -2.367	 -1.257	 -0.004	  0.002	  0.000	 33.300	 99.121	  0.617
60925	 -0.351	  0.579	  0.231	  9.438	 -2.356	 -1.257	 -0.003	  0.002	 -0.000	 33.300	 99.136	 -0.744
60975	 -0.346	  0.575	  0.224	  9.420	 -2.350	 -1.300	 -0.003	  0.002	  0.000	 33.300	 99.136	 -0.744
61025	 -0.346	  0.582	  0.231	  9.423	 -2.378	 -1.252	 -0.003	  0.003	  0.001	 33.300	 99.125	  0.254
61075	 -0.348	  0.576	  0.232	  9.417	 -2.388	 -1.236	 -0.002	  0.002	  0.001	 33.300	 99.121	  0.617
61125	 -0.347	  0.575	  0.229	  9.400	 -2.362	 -1.242	 -0.004	  0.004	  0.001	 33.300	 99.136	 -0.744
61175	 -0.348	  0.579	  0.232	  9.399	 -2.386	 -1.269	 -0.003	  0.001	  0.000	 33.300	 99.125	  0.254
61225	 -0.349	  0.580	  0.228	  9.393	 -2.368	 -1.264	 -0.004	  0.003	  0.000	 33.300	 99.132	 -0.382
61275	 -0.348	  0.577	  0.229	  9.421	 -2.386	 -1.215	 -0.002	  0.003	 -0.000	 33.300	 99.125	  0.254
61325	 -0.350	  0.576	  0.232	  9.416	 -2.382	 -1.257	 -0.004	  0.003	 -0.000	 33.300	 99.125	  0.254
61375	 -0.347	  0.573	  0.232	  9.408	 -2.349	 -1.262	 -0.003	  0.001	 -0.000	 33.300	 99.136	 -0.744
61425	 -0.347	  0.571	  0.232	  9.427	 -2.361	 -1.280	 -0.003	  0.003	  0.001	 33.300	 99.121	  0.617
61475	 -0.346	  0.576	  0.232	  9.406	 -2.370	 -1.264	 -0.003	  0.003	  0.001	 33.300	 99.121	  0.617
61525	 -0.347	  0.575	  0.229	  9.412	 -2.365	 -1.281	 -0.003	  0.002	  0.001	 33.300	 99.136	 -0.744
61575	 -0.346	  0.575	  0.231	  9.414	 -2.388	 -1.256	 -0.004	  0.003	  0.001	 33.300	 99.121	  0.617
61625	 -0.348	  0.576	  0.231	  9.412	 -2.365	 -1.257	 -0.004	  0.003	  0.001	 33.300	 99.113	  1.343
61675	 -0.348	  0.583	  0.231	  9.406	 -2.368	 -1.273	 -0.004	  0.002	  0.002	 33.300	 99.132	 -0.382
61725	 -0.349	  0.573	  0.231	  9.415	 -2.378	 -1.282	 -0.003	  0.002	  0.001	 33.300	 99.125	  0.254
61775	 -0.345	  0.579	  0.229	  9.420	 -2.353	 -1.254	 -0.003	  0.001	  0.001	 33.300	 99.125	  0.254
61825	 -0.349	  0.572	  0.230	  9.387	 -2.363	 -1.266	 -0.004	  0.003	  0.001	 33.300	 99.125	  0.254
61875	 -0.348	  0.582	  0.230	  9.423	 -2.370	 -1.260	 -0.003	  0.003	  0.001	 33.300	 99.125	  0.254
61925	 -0.349	  0.578	  0.230	  9.414	 -2.379	 -1.246	 -0.004	  0.002	  0.001	 33.300	 99.125	  0.254
61975	 -0.347	  0.573	  0.231	  9.419	 -2.368	 -1.252	 -0.003	  0.002	 -0.000	 33.300	 99.125	  0.254
62025	 -0.347	  0.575	  0.229	  9.419	 -2.369	 -1.273	 -0.004	  0.002	  0.001	 33.300	 99.125	  0.254
62075	 -0.348	  0.578	  0.229	  9.406	 -2.361	 -1.244	 -0.004	  0.002	  0.001	 33.300	 99.125	  0.254
62125	 -0.346	  0.572	  0.231	  9.410	 -2.369	 -1.238	 -0.003	  0.004	  0.000	 33.300	 99.125	  0.254
62175	 -0.347	  0.578	  0.230	  9.395	 -2.365	 -1.258	 -0.003	  0.003	  0.001	 33.300	 99.121	  0.617
62225	 -0.348	  0.581	  0.229	  9.402	 -2.361	 -1.281	 -0.003	  0.003	  0.002	 33.300	 99.125	  0.254
62275	 -0.349	  0.572	  0.229	  9.380	 -2.352	 -1.280	 -0.002	  0.003	  0.001	 33.300	 99.132	 -0.382
62325	 -0.349	  0.577	  0.228	  9.418	 -2.366	 -1.295	 -0.003	  0.004	 -0.000	 33.300	 99.136	 -0.744
62375	 -0.350	  0.574	  0.231	  9.422	 -2.367	 -1.269	 -0.004	  0.002	 -0.000	 33.300	 99.125	  0.254
62425	 -0.349	  0.574	  0.226	  9.399	 -2.372	 -1.255	 -0.003	  0.004	  0.001	 33.300	 99.136	 -0.744
62475	 -0.348	  0.573	  0.230	  9.410	 -2.377	 -1.269	 -0.003	  0.002	 -0.000	 33.300	 99.125	  0.254
62525	 -0.347	  0.575	  0.231	  9.413	 -2.381	 -1.261	 -0.004	  0.002	  0.001	 33.300	 99.113	  1.343
62575	 -0.346	  0.575	  0.229	  9.425	 -2.381	 -1.257	 -0.002	  0.002	  0.001	 33.300	 99.125	  0.254
62625	 -0.346	  0.579	  0.229	  9.414	 -2.358	 -1.281	 -0.003	  0.002	  0.001	 33.300	 99.136	 -0.744
62675	 -0.349	  0.573	  0.229	  9.417	 -2.393	 -1.281	 -0.003	  0.003	  0.000	 33.300	 99.125	  0.254
62725	 -0.347	  0.575	  0.233	  9.404	 -2.363	 -1.274	 -0.003	  0.002	 -0.000	 33.300	 99.125	  0.254
62775	 -0.348	  0.574	  0.225	  9.394	 -2.383	 -1.259	 -0.003	  0.003	  0.001	 33.300	 99.136	 -0.744
62825	 -0.350	  0.574	  0.231	  9.417	 -2.358	 -1.269	 -0.003	  0.002	  0.001	 33.300	 99.113	  1.343
62875	 -0.346	  0.576	  0.230	  9.426	 -2.380	 -1.259	 -0.005	  0.001	  0.002	 33.300	 99.125	  0.254
62925	 -0.349	  0.571	  0.231	  9.404	 -2.362	 -1.263	 -0.004	  0.003	 -0.001	 33.300	 99.136	 -0.744
62975	 -0.348	  0.576	  0.230	  9.417	 -2.367	 -1.280	 -0.004	  0.003	 -0.000	 33.300	 99.125	  0.254
63025	 -0.349	  0.574	  0.232	  9.435	 -2.369	 -1.252	 -0.003	  0.003	  0.001	 33.300	 99.125	  0.254
63075	 -0.347	  0.580	  0.231	  9.414	 -2.374	 -1.303	 -0.003	  0.002	  0.000	 33.300	 99.121	  0.617
63125	 -0.348	  0.579	  0.229	  9.424	 -2.381	 -1.307	 -0.005	  0.002	 -0.000	 33.300	 99.109	  1.706
63175	 -0.347	  0.580	  0.232	  9.433	 -2.357	 -1.255	 -0.003	  0.002	  0.001	 33.300	 99.113	  1.343
63225	 -0.348	  0.572	  0.230	  9.430	 -2.370	 -1.254	 -0.003	  0.002	  0.001	 33.300	 99.136	 -0.744
63275	 -0.348	  0.572	  0.228	  9.436	 -2.357	 -1.265	 -0.004	  0.003	  0.000	 33.300	 99.132	 -0.382
63325	 -0.351	  0.576	  0.230	  9.421	 -2.349	 -1.268	 -0.002	  0.002	  0.001	 33.300	 99.125	  0.254
63375	 -0.348	  0.576	  0.225	  9.406	 -2.362	 -1.242	 -0.003	  0.002	  0.001	 33.300	 99.113	  1.343
63424	 -0.348	  0.576	  0.230	  9.393	 -2.373	 -1.279	 -0.003	  0.003	  0.001	 33.300	 99.125	  0.254
63474	 -0.349	  0.575	  0.231	  9.431	 -2.375	 -1.255	 -0.003	  0.003	  0.002	 33.300	 99.136	 -0.744
63524	 -0.348	  0.574	  0.228	  9.421	 -2.365	 -1.267	 -0.004	  0.002	  0.000	 33.300	 99.125	  0.254
63574	 -0.348	  0.574	  0.231	  9.407	 -2.362	 -1.258	 -0.004	  0.003	  0.001	 33.300	 99.125	  0.254
63624	 -0.346	  0.573	  0.229	  9.423	 -2.385	 -1.254	 -0.003	  0.002	  0.001	 33.300	 99.125	  0.254
63674	 -0.349	  0.575	  0.229	  9.423	 -2.374	 -1.290	 -0.005	  0.002	  0.000	 33.300	 99.125	  0.254
63724	 -0.347	  0.577	  0.232	  9.414	 -2.355	 -1.283	 -0.002	  0.004	 -0.001	 33.300	 99.125	  0.254
63774	 -0.347	  0.573	  0.228	  9.399	 -2.366	 -1.249	 -0.003	  0.002	  0.000	 33.300	 99.121	  0.617
63824	 -0.348	  0.572	  0.224	  9.405	 -2.370	 -1.256	 -0.003	  0.003	  0.000	 33.300	 99.125	  0.254
63874	 -0.348	  0.573	  0.229	  9.426	 -2.394	 -1.270	 -0.004	  0.002	 -0.000	 33.300	 99.125	  0.254
63924	 -0.347	  0.580	  0.232	  9.404	 -2.366	 -1.296	 -0.003	  0.002	 -0.000	 33.300	 99.136	 -0.744
63974	 -0.349	  0.581	  0.230	  9.405	 -2.360	 -1.261	 -0.003	  0.004	  0.001	 33.300	 99.132	 -0.382
64024	 -0.350	  0.576	  0.231	  9.436	 -2.353	 -1.307	 -0.004	  0.003	  0.000	 33.300	 99.132	 -0.382
64074	 -0.347	  0.574	  0.229	  9.400	 -2.367	 -1.290	 -0.004	  0.002	  0.000	 33.300	 99.113	  1.343
64124	 -0.348	  0.576	  0.232	  9.402	 -2.368	 -1.268	 -0.002	  0.004	 -0.001	 33.300	 99.125	  0.254
64174	 -0.350	  0.572	  0.230	  9.417	 -2.375	 -1.249	 -0.003	  0.003	  0.000	 33.300	 99.125	  0.254
64224	 -0.347	  0.575	  0.229	  9.397	 -2.352	 -1.271	 -0.003	  0.003	  0.000	 33.300	 99.125	  0.254
64274	 -0.349	  0.575	  0.226	  9.414	 -2.342	 -1.249	 -0.003	  0.002	  0.001	 33.300	 99.125	  0.254
64324	 -0.347	  0.576	  0.225	  9.382	 -2.373	 -1.282	 -0.003	  0.003	  0.001	 33.300	 99.125	  0.254
64374	 -0.346	  0.572	  0.229	  9.393	 -2.359	 -1.224	 -0.004	  0.001	  0.000	 33.300	 99.125	  0.254
64424	 -0.347	  0.574	  0.229	  9.428	 -2.351	 -1.253	 -0.002	  0.004	  0.000	 33.300	 99.136	 -0.744
64474	 -0.349	  0.576	  0.234	  9.406	 -2.379	 -1.258	 -0.005	  0.003	 -0.000	 33.300	 99.125	  0.254
64524	 -0.350	  0.577	  0.231	  9.393	 -2.372	 -1.230	 -0.005	  0.002	  0.002	 33.300	 99.125	  0.254
64574	 -0.349	  0.577	  0.230	  9.419	 -2.364	 -1.280	 -0.002	  0.002	 -0.001	 33.300	 99.121	  0.617
64624	 -0.349	  0.579	  0.225	  9.418	 -2.355	 -1.268	 -0.003	  0.003	  0.000	 33.300	 99.125	  0.254
64674	 -0.349	  0.574	  0.225	  9.404	 -2.354	 -1.256	 -0.004	  0.003	 -0.001	 33.300	 99.136	 -0.744
64724	 -0.348	  0.575	  0.232	  9.401	 -2.363	 -1.278	 -0.003	  0.002	  0.002	 33.300	 99.129	 -0.108
64775	 -0.351	  0.573	  0.231	  9.437	 -2.378	 -1.280	 -0.005	  0.002	  0.001	 33.300	 99.125	  0.254
64824	 -0.349	  0.572	  0.232	  9.425	 -2.382	 -1.260	 -0.003	  0.003	  0.000	 33.300	 99.125	  0.254
64875	 -0.348	  0.576	  0.231	  9.406	 -2.374	 -1.283	 -0.005	  0.002	  0.000	 33.300	 99.125	  0.254
64924	 -0.346	  0.572	  0.231	  9.404	 -2.361	 -1.242	 -0.003	  0.003	  0.000	 33.300	 99.125	  0.254
64974	 -0.349	  0.574	  0.229	  9.432	 -2.404	 -1.257	 -0.004	  0.001	  0.000	 33.300	 99.125	  0.254
65024	 -0.348	  0.574	  0.228	  9.388	 -2.384	 -1.245	 -0.004	  0.002	 -0.000	 33.300	 99.125	  0.254
65074	 -0.348	  0.576	  0.225	  9.431	 -2.382	 -1.285	 -0.005	  0.002	 -0.000	 33.300	 99.125	  0.254
65124	 -0.349	  0.577	  0.230	  9.423	 -2.390	 -1.265	 -0.004	  0.003	  0.001	 33.300	 99.125	  0.254
65174	 -0.347	  0.578	  0.230	  9.452	 -2.379	 -1.274	 -0.004	  0.002	 -0.001	 33.300	 99.125	  0.254
65225	 -0.349	  0.578	  0.228	  9.412	 -2.351	 -1.280	 -0.004	  0.004	  0.001	 33.300	 99.125	  0.254
65274	 -0.348	  0.574	  0.233	  9.413	 -2.384	 -1.264	 -0.003	  0.003	  0.001	 33.300	 99.121	  0.617
65325	 -0.347	  0.571	  0.229	  9.426	 -2.369	 -1.290	 -0.003	  0.002	  0.001	 33.300	 99.136	 -0.744
65375	 -0.347	  0.575	  0.232	  9.410	 -2.380	 -1.261	 -0.003	  0.002	  0.002	 33.300	 99.125	  0.254
65425	 -0.349	  0.574	  0.231	  9.400	 -2.376	 -1.254	 -0.005	  0.001	  0.001	 33.300	 99.125	  0.254
65475	 -0.349	  0.573	  0.229	  9.401	 -2.375	 -1.268	 -0.003	  0.002	  0.001	 33.300	 99.125	  0.254
65525	 -0.348	  0.575	  0.231	  9.417	 -2.380	 -1.258	 -0.003	  0.002	 -0.000	 33.300	 99.136	 -0.744
65575	 -0.348	  0.577	  0.230	  9.429	 -2.357	 -1.266	 -0.004	  0.002	  0.001	 33.300	 99.125	  0.254
65625	 -0.348	  0.576	  0.229	  9.396	 -2.372	 -1.304	 -0.001	  0.002	  0.000	 33.300	 99.125	  0.254
65675	 -0.348	  0.576	  0.226	  9.423	 -2.378	 -1.274	 -0.005	  0.003	  0.001	 33.300	 99.125	  0.254
65725	 -0.348	  0.576	  0.228	  9.414	 -2.362	 -1.275	 -0.004	  0.003	 -0.000	 33.300	 99.113	  1.343
65775	 -0.348	  0.576	  0.228	  9.433	 -2.355	 -1.264	 -0.003	  0.003	  0.000	 33.300	 99.121	  0.617
65825	 -0.346	  0.573	  0.231	  9.421	 -2.375	 -1.261	 -0.004	  0.002	  0.000	 33.300	 99.125	  0.254
65875	 -0.347	  0.577	  0.223	  9.423	 -2.370	 -1.245	 -0.003	  0.003	 -0.000	 33.300	 99.136	 -0.744
65925	 -0.347	  0.577	  0.232	  9.408	 -2.381	 -1.223	 -0.004	  0.004	  0.001	 33.300	 99.125	  0.254
65975	 -0.348	  0.575	  0.228	  9.403	 -2.359	 -1.258	 -0.004	  0.002	 -0.001	 33.300	 99.125	  0.254
66025	 -0.348	  0.574	  0.230	  9.417	 -2.382	 -1.269	 -0.003	  0.003	  0.001	 33.300	 99.125	  0.254
66075	 -0.349	  0.572	  0.229	  9.413	 -2.368	 -1.263	 -0.002	  0.002	 -0.000	 33.300	 99.125	  0.254
66125	 -0.348	  0.575	  0.233	  9.431	 -2.373	 -1.266	 -0.003	  0.002	  0.000	 33.300	 99.125	  0.254
66175	 -0.347	  0.576	  0.230	  9.412	 -2.397	 -1.288	 -0.003	  0.004	 -0.000	 33.300	 99.132	 -0.382
66225	 -0.349	  0.576	  0.231	  9.433	 -2.386	 -1.247	 -0.003	  0.002	  0.001	 33.300	 99.125	  0.254
66275	 -0.345	  0.577	  0.231	  9.426	 -2.359	 -1.319	 -0.004	  0.003	  0.001	 33.300	 99.125	  0.254
66325	 -0.347	  0.584	  0.231	  9.398	 -2.352	 -1.266	 -0.004	  0.003	 -0.000	 33.300	 99.132	 -0.382
66375	 -0.348	  0.574	  0.234	  9.414	 -2.373	 -1.264	 -0.003	  0.002	  0.000	 33.300	 99.125	  0.254
66425	 -0.348	  0.576	  0.230	  9.394	 -2.358	 -1.220	 -0.003	  0.003	  0.001	 33.300	 99.125	  0.254
66475	 -0.348	  0.573	  0.231	  9.420	 -2.376	 -1.241	 -0.005	  0.001	  0.001	 33.300	 99.136	 -0.744
