Time	 MagX	 MagY	 MagZ	 AccelX	 AccelY	 AccelZ	 Yaw	 Pitch	 Roll	 Temperature	 Pressure	 Altitude
15327	  0.757	 -0.308	  0.348	  0.209	  0.076	 -9.762	 -0.003	  0.002	 -0.000	 32.300	 99.092	 -99999.000
15377	  0.759	 -0.303	  0.349	  0.205	  0.037	 -9.751	 -0.003	  0.002	  0.001	 32.300	 99.088	 -99999.000
15427	  0.758	 -0.304	  0.348	  0.207	  0.087	 -9.786	 -0.003	  0.001	  0.001	 32.300	 99.088	 -99999.000
15477	  0.756	 -0.305	  0.349	  0.233	  0.058	 -9.735	 -0.004	  0.001	  0.001	 32.300	 99.088	 -99999.000
15527	  0.758	 -0.308	  0.345	  0.205	  0.056	 -9.755	 -0.002	  0.002	  0.001	 32.300	 99.099	 -99999.000
15577	  0.754	 -0.311	  0.348	  0.229	  0.062	 -9.747	 -0.003	  0.002	 -0.000	 32.300	 99.099	 -99999.000
15627	  0.756	 -0.309	  0.346	  0.208	  0.073	 -9.743	 -0.003	  0.002	 -0.001	 32.300	 99.088	 -99999.000
15677	  0.756	 -0.305	  0.348	  0.217	  0.073	 -9.779	 -0.003	  0.002	  0.000	 32.300	 99.088	 -99999.000
15727	  0.756	 -0.309	  0.348	  0.205	  0.054	 -9.769	 -0.003	  0.003	  0.001	 32.300	 99.099	 -99999.000
15777	  0.757	 -0.309	  0.344	  0.193	  0.063	 -9.778	 -0.003	  0.002	  0.001	 32.300	 99.099	 -99999.000
15827	  0.757	 -0.304	  0.347	  0.215	  0.046	 -9.768	 -0.003	  0.003	  0.000	 32.300	 99.088	 -99999.000
15877	  0.760	 -0.304	  0.349	  0.203	  0.059	 -9.758	 -0.003	  0.002	  0.000	 32.300	 99.099	 -99999.000
15927	  0.757	 -0.309	  0.349	  0.191	  0.049	 -9.724	 -0.003	  0.002	  0.000	 32.300	 99.076	 -99999.000
15977	  0.757	 -0.308	  0.347	  0.207	  0.085	 -9.756	 -0.002	  0.002	 -0.000	 32.300	 99.088	 -99999.000
16027	  0.757	 -0.307	  0.347	  0.189	  0.040	 -9.788	 -0.004	  0.001	  0.000	 32.300	 99.088	 -99999.000
16077	  0.757	 -0.303	  0.349	  0.229	  0.081	 -9.761	 -0.003	  0.003	  0.000	 32.300	 99.099	 -99999.000
16127	  0.755	 -0.305	  0.348	  0.200	  0.062	 -9.761	 -0.004	  0.002	 -0.000	 32.300	 99.103	 -99999.000
16177	  0.757	 -0.309	  0.348	  0.213	  0.064	 -9.758	 -0.003	  0.002	 -0.000	 32.300	 99.088	 -99999.000
16227	  0.757	 -0.307	  0.348	  0.228	  0.081	 -9.741	 -0.003	  0.003	  0.001	 32.300	 99.099	 -99999.000
16277	  0.757	 -0.309	  0.349	  0.230	  0.069	 -9.767	 -0.004	  0.003	  0.001	 32.300	 99.099	 -99999.000
16327	  0.756	 -0.307	  0.348	  0.201	  0.073	 -9.776	 -0.004	  0.002	 -0.000	 32.300	 99.088	 -99999.000
16377	  0.756	 -0.309	  0.346	  0.197	  0.070	 -9.752	 -0.004	  0.002	 -0.000	 32.300	 99.088	 -99999.000
16427	  0.758	 -0.306	  0.350	  0.218	  0.070	 -9.769	 -0.003	  0.002	  0.001	 32.300	 99.088	 -99999.000
16477	  0.756	 -0.307	  0.349	  0.220	  0.087	 -9.753	 -0.003	  0.003	  0.000	 32.300	 99.088	 -99999.000
16527	  0.758	 -0.311	  0.348	  0.215	  0.049	 -9.791	 -0.003	  0.002	  0.001	 32.300	 99.088	 -99999.000
16577	  0.757	 -0.308	  0.346	  0.205	  0.050	 -9.755	 -0.002	  0.002	  0.000	 32.300	 99.099	 -99999.000
16627	  0.758	 -0.307	  0.349	  0.204	  0.076	 -9.767	 -0.003	  0.002	  0.001	 32.300	 99.088	 -99999.000
16677	  0.758	 -0.309	  0.349	  0.200	  0.068	 -9.719	 -0.004	  0.002	  0.000	 32.300	 99.088	 -99999.000
16727	  0.757	 -0.308	  0.352	  0.211	  0.068	 -9.775	 -0.003	  0.002	  0.000	 32.300	 99.099	 -99999.000
16777	  0.758	 -0.303	  0.347	  0.179	  0.079	 -9.736	 -0.004	  0.002	  0.001	 32.300	 99.088	 -99999.000
16827	  0.757	 -0.306	  0.347	  0.192	  0.060	 -9.775	 -0.004	  0.003	 -0.001	 32.300	 99.088	 -99999.000
16877	  0.760	 -0.308	  0.349	  0.212	  0.075	 -9.761	 -0.003	  0.003	  0.000	 32.300	 99.088	 -99999.000
16927	  0.757	 -0.305	  0.348	  0.211	  0.068	 -9.761	 -0.003	  0.002	 -0.000	 32.300	 99.099	 -99999.000
16977	  0.757	 -0.308	  0.348	  0.209	  0.069	 -9.776	 -0.003	  0.002	  0.000	 32.300	 99.088	 -99999.000
17027	  0.760	 -0.309	  0.349	  0.216	  0.074	 -9.753	 -0.004	  0.002	  0.001	 32.300	 99.072	 -99999.000
17077	  0.755	 -0.309	  0.347	  0.208	  0.090	 -9.772	 -0.003	  0.003	  0.001	 32.300	 99.088	 -99999.000
17127	  0.758	 -0.309	  0.348	  0.216	  0.043	 -9.768	 -0.003	  0.003	 -0.000	 32.300	 99.088	 -99999.000
17177	  0.754	 -0.304	  0.349	  0.218	  0.051	 -9.763	 -0.003	  0.003	 -0.000	 32.300	 99.088	 -99999.000
17227	  0.757	 -0.310	  0.345	  0.202	  0.068	 -9.763	 -0.004	  0.002	  0.000	 32.300	 99.092	 -99999.000
17277	  0.757	 -0.309	  0.347	  0.222	  0.065	 -9.780	 -0.004	  0.003	 -0.000	 32.300	 99.076	 -99999.000
17327	  0.758	 -0.305	  0.350	  0.226	  0.064	 -9.736	 -0.003	  0.002	  0.001	 32.300	 99.088	 -99999.000
17377	  0.757	 -0.306	  0.349	  0.211	  0.087	 -9.745	 -0.003	  0.001	  0.000	 32.300	 99.088	 -99999.000
17427	  0.757	 -0.307	  0.345	  0.188	  0.060	 -9.781	 -0.003	  0.002	  0.000	 32.300	 99.099	 -99999.000
17477	  0.756	 -0.309	  0.348	  0.215	  0.073	 -9.771	 -0.003	  0.002	 -0.000	 32.300	 99.088	 -99999.000
17527	  0.760	 -0.310	  0.349	  0.202	  0.062	 -9.780	 -0.004	  0.003	  0.001	 32.300	 99.088	 -99999.000
17577	  0.757	 -0.305	  0.347	  0.212	  0.055	 -9.735	 -0.004	  0.002	  0.000	 32.300	 99.088	 -99999.000
17627	  0.758	 -0.307	  0.352	  0.210	  0.064	 -9.739	 -0.004	  0.002	  0.001	 32.300	 99.088	 -99999.000
17677	  0.756	 -0.306	  0.349	  0.216	  0.038	 -9.734	 -0.004	  0.003	  0.000	 32.300	 99.099	 -99999.000
17727	  0.757	 -0.309	  0.347	  0.193	  0.056	 -9.750	 -0.004	  0.002	  0.000	 32.300	 99.092	 -99999.000
17777	  0.758	 -0.304	  0.347	  0.208	  0.052	 -9.734	 -0.004	  0.003	 -0.000	 32.300	 99.092	 -99999.000
17827	  0.757	 -0.310	  0.345	  0.214	  0.059	 -9.791	 -0.004	  0.003	 -0.000	 32.300	 99.088	 -99999.000
17877	  0.758	 -0.304	  0.349	  0.209	  0.064	 -9.764	 -0.004	  0.002	  0.000	 32.300	 99.088	 -99999.000
17927	  0.760	 -0.306	  0.346	  0.221	  0.068	 -9.773	 -0.004	  0.003	  0.001	 32.300	 99.083	 -99999.000
17977	  0.757	 -0.307	  0.347	  0.216	  0.053	 -9.784	 -0.004	  0.003	 -0.000	 32.300	 99.088	 -99999.000
18027	  0.758	 -0.308	  0.348	  0.186	  0.051	 -9.726	 -0.003	  0.001	  0.000	 32.300	 99.088	 -99999.000
18077	  0.757	 -0.308	  0.348	  0.206	  0.053	 -9.747	 -0.003	  0.004	  0.001	 32.300	 99.088	 -99999.000
18127	  0.757	 -0.310	  0.346	  0.231	  0.045	 -9.759	 -0.003	  0.002	  0.000	 32.300	 99.088	 -99999.000
18177	  0.757	 -0.310	  0.346	  0.217	  0.049	 -9.743	 -0.004	  0.003	 -0.000	 32.300	 99.088	 -99999.000
18227	  0.758	 -0.310	  0.348	  0.206	  0.059	 -9.771	 -0.004	  0.003	  0.000	 32.300	 99.088	 -99999.000
18276	  0.757	 -0.310	  0.350	  0.202	  0.069	 -9.750	 -0.002	  0.002	  0.000	 32.300	 99.088	 -99999.000
18327	  0.757	 -0.308	  0.347	  0.207	  0.050	 -9.784	 -0.002	  0.002	 -0.000	 32.300	 99.076	 -99999.000
18377	  0.757	 -0.309	  0.341	  0.236	  0.068	 -9.757	 -0.003	  0.002	  0.000	 32.300	 99.088	 -99999.000
18426	  0.758	 -0.309	  0.349	  0.202	  0.057	 -9.740	 -0.003	  0.002	  0.000	 32.300	 99.103	 -99999.000
18476	  0.758	 -0.303	  0.349	  0.228	  0.068	 -9.778	 -0.003	  0.002	 -0.000	 32.300	 99.088	 -99999.000
18526	  0.756	 -0.310	  0.346	  0.214	  0.056	 -9.756	 -0.004	  0.002	  0.000	 32.300	 99.103	 -99999.000
18577	  0.757	 -0.309	  0.352	  0.220	  0.068	 -9.728	 -0.003	  0.003	 -0.000	 32.300	 99.088	 -99999.000
18627	  0.758	 -0.306	  0.349	  0.215	  0.082	 -9.756	 -0.003	  0.002	 -0.000	 32.300	 99.076	 -99999.000
18676	  0.756	 -0.311	  0.346	  0.218	  0.070	 -9.740	 -0.004	  0.003	  0.000	 32.300	 99.088	 -99999.000
18726	  0.757	 -0.308	  0.349	  0.207	  0.086	 -9.771	 -0.002	  0.001	  0.000	 32.300	 99.088	 -99999.000
18776	  0.760	 -0.307	  0.349	  0.227	  0.091	 -9.734	 -0.004	  0.003	  0.001	 32.300	 99.088	 -99999.000
18827	  0.757	 -0.312	  0.347	  0.231	  0.071	 -9.750	 -0.003	  0.001	 -0.000	 32.300	 99.076	 -99999.000
18876	  0.757	 -0.309	  0.347	  0.205	  0.070	 -9.764	 -0.003	  0.003	  0.001	 32.300	 99.088	 -99999.000
18926	  0.757	 -0.311	  0.350	  0.204	  0.056	 -9.763	 -0.003	  0.003	  0.000	 32.300	 99.088	 -99999.000
18977	  0.758	 -0.307	  0.343	  0.198	  0.065	 -9.760	 -0.005	  0.002	  0.001	 32.300	 99.099	 -99999.000
19027	  0.757	 -0.310	  0.349	  0.194	  0.061	 -9.773	 -0.004	  0.003	  0.001	 32.300	 99.088	 -99999.000
19077	  0.757	 -0.310	  0.347	  0.211	  0.069	 -9.746	 -0.003	  0.003	 -0.000	 32.300	 99.088	 -99999.000
19127	  0.757	 -0.308	  0.347	  0.201	  0.069	 -9.756	 -0.003	  0.003	 -0.001	 32.300	 99.088	 -99999.000
19177	  0.758	 -0.305	  0.349	  0.221	  0.051	 -9.779	 -0.004	  0.004	  0.000	 32.300	 99.088	 -99999.000
19226	  0.757	 -0.310	  0.347	  0.214	  0.063	 -9.772	 -0.004	  0.002	 -0.001	 32.300	 99.088	 -99999.000
19277	  0.760	 -0.310	  0.349	  0.192	  0.055	 -9.761	 -0.003	  0.002	  0.000	 32.300	 99.088	 -99999.000
19327	  0.757	 -0.306	  0.346	  0.219	  0.075	 -9.727	 -0.004	  0.001	  0.000	 32.300	 99.092	 -99999.000
19377	  0.757	 -0.308	  0.349	  0.204	  0.070	 -9.733	 -0.003	  0.002	  0.002	 32.300	 99.099	 -99999.000
19427	  0.755	 -0.307	  0.350	  0.215	  0.072	 -9.785	 -0.002	  0.001	 -0.001	 32.300	 99.103	 -99999.000
19477	  0.757	 -0.306	  0.348	  0.202	  0.059	 -9.765	 -0.004	  0.002	  0.000	 32.300	 99.088	 -99999.000
19527	  0.757	 -0.313	  0.346	  0.200	  0.072	 -9.739	 -0.004	  0.002	  0.001	 32.300	 99.099	 -99999.000
19577	  0.757	 -0.306	  0.345	  0.215	  0.037	 -9.754	 -0.003	  0.002	  0.001	 32.300	 99.099	 -99999.000
19627	  0.756	 -0.311	  0.348	  0.208	  0.055	 -9.761	 -0.003	  0.003	  0.001	 32.300	 99.083	 -99999.000
19677	  0.755	 -0.306	  0.349	  0.213	  0.054	 -9.732	 -0.003	  0.001	  0.000	 32.300	 99.088	 -99999.000
19727	  0.757	 -0.307	  0.346	  0.215	  0.071	 -9.727	 -0.003	  0.002	  0.001	 32.300	 99.076	 -99999.000
19777	  0.756	 -0.305	  0.350	  0.230	  0.056	 -9.772	 -0.004	  0.003	  0.000	 32.300	 99.088	 -99999.000
19827	  0.758	 -0.306	  0.350	  0.221	  0.039	 -9.768	 -0.003	  0.003	 -0.000	 32.300	 99.092	 -99999.000
19877	  0.757	 -0.308	  0.343	  0.213	  0.048	 -9.721	 -0.002	  0.003	  0.001	 32.300	 99.092	 -99999.000
19927	  0.757	 -0.303	  0.342	  0.211	  0.075	 -9.741	 -0.003	  0.002	 -0.001	 32.300	 99.076	 -99999.000
19977	  0.758	 -0.306	  0.349	  0.220	  0.079	 -9.721	 -0.004	  0.003	  0.000	 32.300	 99.088	 -99999.000
20027	  0.757	 -0.307	  0.348	  0.207	  0.057	 -9.735	 -0.003	  0.003	 -0.000	 32.300	 99.088	 -99999.000
20077	  0.757	 -0.304	  0.348	  0.205	  0.060	 -9.743	 -0.004	  0.001	  0.000	 32.300	 99.088	 -99999.000
20127	  0.757	 -0.308	  0.350	  0.194	  0.080	 -9.760	 -0.004	  0.002	  0.001	 32.300	 99.088	 -99999.000
20177	  0.756	 -0.306	  0.346	  0.211	  0.053	 -9.792	 -0.004	  0.002	 -0.000	 32.300	 99.099	 -99999.000
20228	  0.757	 -0.310	  0.348	  0.200	  0.067	 -9.772	 -0.003	  0.002	 -0.000	 32.300	 99.088	 -99999.000
20278	  0.755	 -0.306	  0.349	  0.209	  0.042	 -9.760	 -0.003	  0.002	  0.001	 32.300	 99.088	 -99999.000
20328	  0.757	 -0.306	  0.346	  0.223	  0.048	 -9.786	 -0.004	  0.003	  0.001	 32.300	 99.088	 -99999.000
20378	  0.757	 -0.308	  0.348	  0.220	  0.078	 -9.764	 -0.004	  0.002	  0.000	 32.300	 99.088	 -99999.000
20428	  0.758	 -0.309	  0.347	  0.203	  0.060	 -9.760	 -0.004	  0.001	  0.001	 32.300	 99.088	 -99999.000
20478	  0.758	 -0.311	  0.347	  0.211	  0.064	 -9.760	 -0.002	  0.002	 -0.001	 32.300	 99.088	 -99999.000
20528	  0.757	 -0.305	  0.347	  0.211	  0.070	 -9.766	 -0.004	  0.003	  0.000	 32.300	 99.088	 -99999.000
20578	  0.758	 -0.310	  0.350	  0.207	  0.053	 -9.774	 -0.004	  0.002	  0.000	 32.300	 99.099	 -99999.000
20627	  0.756	 -0.305	  0.347	  0.224	  0.060	 -9.740	 -0.004	  0.001	 -0.000	 32.300	 99.088	 -99999.000
20677	  0.757	 -0.310	  0.346	  0.209	  0.056	 -9.735	 -0.003	  0.003	  0.000	 32.300	 99.080	 -99999.000
20727	  0.756	 -0.302	  0.350	  0.187	  0.056	 -9.736	 -0.004	  0.003	  0.001	 32.300	 99.088	 -99999.000
20777	  0.758	 -0.308	  0.346	  0.221	  0.071	 -9.757	 -0.003	  0.002	  0.000	 32.300	 99.092	 -99999.000
20827	  0.757	 -0.311	  0.349	  0.222	  0.053	 -9.749	 -0.003	  0.002	  0.001	 32.300	 99.088	 -99999.000
20877	  0.755	 -0.308	  0.346	  0.201	  0.054	 -9.745	 -0.003	  0.002	  0.001	 32.300	 99.080	 -99999.000
20927	  0.756	 -0.310	  0.349	  0.206	  0.056	 -9.712	 -0.003	  0.003	  0.001	 32.300	 99.099	 -99999.000
20977	  0.757	 -0.311	  0.349	  0.179	  0.032	 -9.784	 -0.004	  0.002	 -0.000	 32.300	 99.099	 -99999.000
21027	  0.756	 -0.307	  0.350	  0.215	  0.081	 -9.717	 -0.004	  0.003	  0.000	 32.300	 99.088	 -99999.000
21077	  0.758	 -0.311	  0.345	  0.203	  0.077	 -9.810	 -0.004	  0.002	  0.001	 32.300	 99.088	 -99999.000
21127	  0.758	 -0.303	  0.349	  0.211	  0.073	 -9.724	 -0.004	  0.002	  0.001	 32.300	 99.088	 -99999.000
21177	  0.758	 -0.309	  0.348	  0.219	  0.079	 -9.769	 -0.003	  0.003	  0.001	 32.300	 99.088	 -99999.000
21227	  0.758	 -0.307	  0.349	  0.192	  0.050	 -9.766	 -0.003	  0.002	  0.001	 32.300	 99.099	 -99999.000
21277	  0.757	 -0.309	  0.349	  0.209	  0.061	 -9.724	 -0.004	  0.003	 -0.001	 32.300	 99.088	 -99999.000
27153	  0.753	 -0.309	  0.346	  0.222	  0.062	 -9.745	 -0.003	  0.002	  0.001	 32.300	 99.092	 -0.246
27202	  0.753	 -0.308	  0.343	  0.235	  0.083	 -9.737	 -0.004	  0.002	  0.000	 32.300	 99.092	 -0.246
27252	  0.756	 -0.308	  0.348	  0.226	  0.061	 -9.767	 -0.004	  0.001	  0.000	 32.300	 99.076	  1.205
27302	  0.753	 -0.308	  0.345	  0.189	  0.073	 -9.773	 -0.003	  0.002	  0.002	 32.300	 99.092	 -0.246
27352	  0.754	 -0.307	  0.343	  0.224	  0.071	 -9.795	 -0.003	  0.001	  0.001	 32.300	 99.099	 -0.880
27402	  0.754	 -0.305	  0.343	  0.214	  0.045	 -9.775	 -0.004	  0.003	  0.002	 32.300	 99.076	  1.205
27452	  0.756	 -0.309	  0.344	  0.236	  0.078	 -9.758	 -0.003	  0.002	  0.000	 32.300	 99.099	 -0.880
27502	  0.751	 -0.310	  0.342	  0.213	  0.064	 -9.762	 -0.002	  0.003	 -0.001	 32.300	 99.092	 -0.246
27552	  0.755	 -0.309	  0.341	  0.236	  0.055	 -9.734	 -0.004	  0.002	  0.001	 32.300	 99.092	 -0.246
27602	  0.753	 -0.312	  0.342	  0.189	  0.071	 -9.735	 -0.004	  0.002	  0.001	 32.300	 99.076	  1.205
27652	  0.753	 -0.309	  0.339	  0.226	  0.056	 -9.778	 -0.004	  0.002	  0.001	 32.300	 99.099	 -0.880
27702	  0.754	 -0.311	  0.341	  0.216	  0.087	 -9.716	 -0.003	  0.003	  0.001	 32.300	 99.088	  0.117
27752	  0.754	 -0.303	  0.343	  0.212	  0.078	 -9.783	 -0.003	  0.002	 -0.000	 32.300	 99.088	  0.117
27802	  0.754	 -0.304	  0.343	  0.241	  0.056	 -9.789	 -0.004	  0.001	 -0.000	 32.300	 99.092	 -0.246
27852	  0.754	 -0.311	  0.346	  0.187	  0.055	 -9.749	 -0.004	  0.002	  0.000	 32.300	 99.088	  0.117
27902	  0.755	 -0.309	  0.345	  0.199	  0.052	 -9.738	 -0.003	  0.003	 -0.000	 32.300	 99.099	 -0.880
27952	  0.754	 -0.307	  0.345	  0.220	  0.064	 -9.783	 -0.004	  0.002	  0.000	 32.300	 99.092	 -0.246
28002	  0.755	 -0.310	  0.343	  0.213	  0.053	 -9.777	 -0.004	  0.003	  0.001	 32.300	 99.076	  1.205
28052	  0.754	 -0.309	  0.345	  0.232	  0.050	 -9.756	 -0.003	  0.003	  0.001	 32.300	 99.092	 -0.246
28102	  0.752	 -0.311	  0.346	  0.208	  0.074	 -9.741	 -0.004	  0.003	  0.000	 32.300	 99.080	  0.842
28152	  0.754	 -0.308	  0.342	  0.228	  0.044	 -9.770	 -0.002	  0.003	  0.001	 32.300	 99.088	  0.117
28202	  0.755	 -0.312	  0.343	  0.206	  0.041	 -9.763	 -0.003	  0.002	 -0.000	 32.300	 99.088	  0.117
28252	  0.755	 -0.309	  0.345	  0.219	  0.032	 -9.746	 -0.004	  0.002	 -0.000	 32.300	 99.103	 -1.243
28302	  0.754	 -0.308	  0.345	  0.231	  0.066	 -9.757	 -0.003	  0.002	 -0.000	 32.300	 99.092	 -0.246
28352	  0.754	 -0.311	  0.342	  0.209	  0.084	 -9.750	 -0.003	  0.002	  0.001	 32.300	 99.092	 -0.246
28402	  0.754	 -0.309	  0.340	  0.218	  0.060	 -9.757	 -0.003	  0.002	  0.000	 32.300	 99.088	  0.117
28452	  0.756	 -0.311	  0.344	  0.200	  0.065	 -9.774	 -0.003	  0.002	 -0.001	 32.300	 99.076	  1.205
28502	  0.753	 -0.309	  0.345	  0.195	  0.068	 -9.742	 -0.003	  0.002	 -0.000	 32.300	 99.088	  0.117
28552	  0.755	 -0.310	  0.341	  0.219	  0.067	 -9.765	 -0.004	  0.002	  0.001	 32.300	 99.092	 -0.246
28602	  0.754	 -0.313	  0.342	  0.221	  0.063	 -9.757	 -0.004	  0.002	 -0.000	 32.300	 99.088	  0.117
28652	  0.756	 -0.307	  0.346	  0.209	  0.053	 -9.769	 -0.003	  0.001	 -0.000	 32.300	 99.088	  0.117
28702	  0.753	 -0.312	  0.341	  0.215	  0.053	 -9.787	 -0.004	  0.002	  0.001	 32.300	 99.092	 -0.246
28752	  0.753	 -0.309	  0.341	  0.236	  0.057	 -9.746	  0.001	  0.005	 -0.001	 32.300	 99.088	  0.117
28802	  0.753	 -0.308	  0.341	  0.249	  0.046	 -9.787	 -0.006	  0.001	 -0.001	 32.300	 99.092	 -0.246
28852	  0.754	 -0.306	  0.345	  0.211	  0.047	 -9.758	 -0.004	  0.002	 -0.000	 32.300	 99.092	 -0.246
28902	  0.743	 -0.286	  0.331	  0.188	  0.144	 -9.754	 -0.002	  0.003	 -0.006	 32.300	 99.088	  0.117
28952	  0.749	 -0.298	  0.337	  0.179	  0.127	 -9.744	  0.010	  0.015	  0.008	 32.300	 99.092	 -0.246
29002	  0.767	 -0.323	  0.327	  0.901	  0.504	 -10.034	 -0.074	 -0.022	  0.286	 32.300	 99.076	  1.205
29052	  0.831	 -0.375	  0.299	  0.425	 -1.650	 -11.164	  0.089	  0.060	  0.047	 32.300	 99.088	  0.117
29102	  0.826	 -0.319	  0.287	  2.794	 -2.194	 -9.867	  0.609	  0.033	 -0.728	 32.300	 99.099	 -0.880
29152	  0.735	 -0.103	  0.361	 -1.869	  2.990	 -13.415	  1.875	  1.180	 -0.258	 32.300	 99.092	 -0.246
29202	  0.653	  0.070	  0.342	 -1.421	 -3.319	 -3.415	 -1.115	 -2.685	 -1.321	 32.300	 99.092	 -0.246
29252	  0.628	  0.029	  0.351	  6.192	  2.745	 -12.812	 -4.661	  1.529	 -0.365	 32.300	 99.085	  0.389
29302	  0.587	 -0.001	  0.365	 -3.699	  4.999	 -9.897	  1.016	  0.851	  1.500	 32.300	 99.080	  0.842
29352	  0.605	  0.002	  0.344	  0.426	 -4.397	 -7.824	  0.561	 -0.919	 -0.752	 32.300	 99.092	 -0.246
29402	  0.636	  0.011	  0.338	  0.019	  2.561	 -11.818	  0.448	  0.425	  0.302	 32.300	 99.088	  0.117
29452	  0.639	 -0.005	  0.338	  0.788	 -1.154	 -10.510	  0.378	 -0.107	  0.010	 32.300	 99.088	  0.117
29502	  0.627	  0.034	  0.354	 -0.707	  0.501	 -8.508	 -0.094	 -0.857	 -0.445	 32.300	 99.092	 -0.246
29552	  0.635	  0.012	  0.323	 -0.785	  1.853	 -10.411	 -0.422	 -0.368	  0.242	 32.300	 99.080	  0.842
29602	  0.626	 -0.005	  0.334	  2.265	  0.148	 -14.168	 -0.043	  0.881	  0.077	 32.300	 99.092	 -0.246
29652	  0.577	  0.054	  0.352	 -2.496	  2.091	 -7.017	  1.162	 -0.381	  0.271	 32.300	 99.088	  0.117
29702	  0.603	  0.033	  0.299	  0.470	 -3.969	 -4.209	 -0.619	 -1.117	  0.218	 32.300	 99.092	 -0.246
29752	  0.594	  0.020	  0.366	  3.216	  0.232	 -15.213	 -1.066	  1.962	 -1.769	 32.300	 99.092	 -0.246
29803	  0.589	  0.080	  0.370	  1.010	  1.007	 -3.082	  1.707	 -2.044	  0.728	 32.300	 99.092	 -0.246
29852	  0.615	  0.088	  0.374	 -5.724	  1.604	 -5.290	 -1.114	  0.243	 -1.281	 32.300	 99.092	 -0.246
29902	  0.616	  0.086	  0.388	  3.994	 -1.269	 -18.108	  2.385	  1.148	  0.108	 32.300	 99.076	  1.205
29952	  0.624	  0.138	  0.341	 -7.830	  5.147	 -4.312	  0.095	 -2.676	  0.963	 32.300	 99.092	 -0.246
30002	  0.633	  0.033	  0.333	  5.521	 -5.576	 -15.648	 -3.291	  2.195	 -0.275	 32.300	 99.092	 -0.246
30052	  0.595	  0.078	  0.336	 -6.037	  6.624	  2.420	  2.876	 -1.977	  1.829	 32.300	 99.088	  0.117
30102	  0.638	  0.024	  0.278	  6.665	 -12.974	 -19.909	 -1.365	  1.694	 -1.260	 32.300	 99.088	  0.117
30153	  0.591	  0.086	  0.326	 -11.780	 10.645	 -1.954	  0.686	 -1.906	  1.287	 32.300	 99.103	 -1.243
30202	  0.615	  0.021	  0.284	 10.403	 -14.194	 -14.452	 -2.734	  1.601	 -1.672	 32.300	 99.088	  0.117
30252	  0.581	  0.080	  0.341	 -14.761	 16.715	 -0.711	  1.562	 -2.094	  1.073	 32.300	 99.088	  0.117
30302	  0.628	  0.013	  0.301	  8.659	 -11.581	 -10.763	 -1.059	  1.861	 -1.480	 32.300	 99.103	 -1.243
30352	  0.607	  0.026	  0.345	 -5.486	 11.074	 -10.182	  1.740	 -1.310	  1.525	 32.300	 99.088	  0.117
30403	  0.623	  0.040	  0.336	 -3.938	 -1.404	 -5.262	 -0.168	  0.202	 -1.676	 32.300	 99.092	 -0.246
30452	  0.620	  0.003	  0.345	 -2.582	  3.169	 -11.924	 -0.497	  0.235	  1.953	 32.300	 99.088	  0.117
30503	  0.610	 -0.083	  0.329	  1.971	 -2.507	 -9.138	 -0.643	  0.294	 -0.133	 32.300	 99.088	  0.117
30552	  0.593	 -0.021	  0.360	 -2.333	  2.063	 -8.768	 -0.400	  0.327	 -0.682	 32.300	 99.103	 -1.243
30603	  0.592	 -0.022	  0.364	 -0.335	  2.019	 -7.581	  0.530	 -0.433	  0.143	 32.300	 99.080	  0.842
30652	  0.619	 -0.046	  0.352	 -2.283	 -0.386	 -12.654	  0.702	 -0.021	  0.058	 32.300	 99.092	 -0.246
30702	  0.609	 -0.050	  0.368	 -0.982	  0.620	 -8.849	  0.218	  0.299	  0.008	 32.300	 99.092	 -0.246
30753	  0.601	 -0.070	  0.375	  1.159	  0.595	 -18.114	 -0.028	  0.251	  0.057	 32.300	 99.103	 -1.243
30802	  0.582	 -0.073	  0.397	 -0.216	  0.209	 -9.857	 -0.020	  0.429	  0.064	 32.300	 99.092	 -0.246
30853	  0.566	 -0.071	  0.405	  0.363	  0.101	 -9.943	  0.105	  0.196	  0.103	 32.300	 99.092	 -0.246
30903	  0.564	 -0.072	  0.412	  0.287	 -0.153	 -9.835	 -0.011	  0.116	  0.112	 32.300	 99.088	  0.117
30952	  0.561	 -0.080	  0.418	 -1.400	 -0.356	 -10.516	  0.067	  0.253	  0.108	 32.300	 99.103	 -1.243
31003	  0.560	 -0.079	  0.423	  0.081	  0.115	 -9.729	  0.013	  0.039	  0.009	 32.300	 99.092	 -0.246
31053	  0.559	 -0.080	  0.423	  0.009	 -0.036	 -9.846	  0.056	  0.130	 -0.003	 32.300	 99.092	 -0.246
31103	  0.557	 -0.072	  0.428	  0.296	  0.083	 -9.436	 -0.024	 -0.017	  0.006	 32.300	 99.076	  1.205
31153	  0.557	 -0.079	  0.427	  0.204	  0.064	 -9.720	 -0.007	  0.001	 -0.001	 32.300	 99.103	 -1.243
31203	  0.558	 -0.080	  0.433	  0.166	  0.079	 -9.742	 -0.003	  0.004	  0.001	 32.300	 99.092	 -0.246
31253	  0.557	 -0.075	  0.431	  0.163	  0.079	 -9.732	 -0.005	  0.000	  0.003	 32.300	 99.092	 -0.246
31303	  0.557	 -0.072	  0.430	  0.190	  0.110	 -9.756	 -0.003	  0.002	  0.002	 32.300	 99.092	 -0.246
31353	  0.559	 -0.071	  0.426	  0.192	  0.087	 -9.769	 -0.003	  0.003	  0.001	 32.300	 99.088	  0.117
31403	  0.562	 -0.062	  0.424	  0.177	  0.062	 -9.763	  0.002	  0.006	  0.006	 32.300	 99.103	 -1.243
31453	  0.562	 -0.069	  0.426	  0.110	  0.177	 -9.723	 -0.000	  0.004	  0.010	 32.300	 99.092	 -0.246
31503	  0.562	 -0.071	  0.431	  0.166	  0.052	 -9.771	 -0.001	  0.004	  0.005	 32.300	 99.088	  0.117
31553	  0.564	 -0.073	  0.433	  0.179	  0.107	 -9.709	  0.002	  0.007	  0.004	 32.300	 99.092	 -0.246
31603	  0.564	 -0.071	  0.433	  0.230	  0.022	 -9.782	 -0.002	  0.003	  0.003	 32.300	 99.099	 -0.880
31653	  0.563	 -0.074	  0.433	  0.209	  0.043	 -9.782	 -0.009	 -0.003	 -0.007	 32.300	 99.103	 -1.243
31703	  0.561	 -0.076	  0.435	  0.200	 -0.110	 -9.757	 -0.006	  0.002	  0.007	 32.300	 99.092	 -0.246
31753	  0.562	 -0.074	  0.431	  0.108	  0.125	 -9.725	 -0.002	  0.005	 -0.004	 32.300	 99.092	 -0.246
31803	  0.563	 -0.074	  0.431	  0.184	  0.092	 -9.699	 -0.003	  0.002	 -0.001	 32.300	 99.103	 -1.243
31853	  0.562	 -0.076	  0.431	  0.261	 -0.242	 -9.735	  0.003	  0.003	 -0.004	 32.300	 99.092	 -0.246
31903	  0.562	 -0.071	  0.435	  0.246	  0.050	 -9.656	 -0.004	 -0.004	 -0.009	 32.300	 99.088	  0.117
31953	  0.560	 -0.078	  0.430	  0.235	  0.017	 -9.741	  0.007	  0.008	 -0.000	 32.300	 99.092	 -0.246
32003	  0.559	 -0.071	  0.429	  0.235	  0.370	 -9.830	  0.026	  0.034	  0.023	 32.300	 99.088	  0.117
32053	  0.561	 -0.073	  0.433	  0.240	  0.073	 -9.786	  0.005	  0.011	  0.010	 32.300	 99.092	 -0.246
32103	  0.559	 -0.072	  0.431	  0.242	  0.027	 -9.786	  0.007	  0.013	  0.013	 32.300	 99.080	  0.842
32153	  0.559	 -0.070	  0.435	  0.178	  0.047	 -9.757	  0.003	  0.008	 -0.004	 32.300	 99.092	 -0.246
32203	  0.561	 -0.071	  0.435	  0.215	  0.165	 -9.801	  0.012	  0.019	  0.022	 32.300	 99.107	 -1.606
32253	  0.561	 -0.068	  0.431	  0.236	  0.028	 -9.723	  0.003	  0.008	  0.008	 32.300	 99.092	 -0.246
32303	  0.562	 -0.071	  0.436	  0.202	  0.030	 -9.740	  0.005	  0.010	  0.003	 32.300	 99.092	 -0.246
32353	  0.562	 -0.069	  0.430	  0.239	  0.036	 -9.738	  0.002	  0.006	  0.005	 32.300	 99.092	 -0.246
32403	  0.559	 -0.069	  0.435	  0.223	  0.012	 -9.778	 -0.003	  0.003	  0.007	 32.300	 99.092	 -0.246
32453	  0.562	 -0.072	  0.435	  0.260	  0.024	 -9.757	  0.001	  0.008	  0.008	 32.300	 99.092	 -0.246
32503	  0.562	 -0.069	  0.435	  0.224	  0.023	 -9.761	 -0.003	  0.003	  0.001	 32.300	 99.092	 -0.246
32552	  0.559	 -0.072	  0.431	  0.216	  0.008	 -9.735	 -0.004	  0.002	  0.001	 32.300	 99.103	 -1.243
32602	  0.561	 -0.073	  0.436	  0.230	  0.033	 -9.790	 -0.002	  0.004	  0.001	 32.300	 99.103	 -1.243
32652	  0.562	 -0.072	  0.435	  0.232	  0.021	 -9.769	 -0.005	  0.003	  0.003	 32.300	 99.092	 -0.246
32702	  0.562	 -0.069	  0.434	  0.237	  0.018	 -9.734	 -0.003	  0.005	  0.002	 32.300	 99.092	 -0.246
32753	  0.562	 -0.069	  0.433	  0.234	  0.025	 -9.771	 -0.002	  0.003	  0.004	 32.300	 99.103	 -1.243
32802	  0.562	 -0.065	  0.436	  0.261	  0.111	 -9.719	  0.014	  0.022	  0.008	 32.300	 99.092	 -0.246
32852	  0.561	 -0.067	  0.437	  0.203	  0.076	 -9.781	 -0.023	 -0.017	 -0.007	 32.300	 99.092	 -0.246
32902	  0.561	 -0.066	  0.433	  0.225	  0.063	 -9.738	 -0.000	  0.005	  0.003	 32.300	 99.103	 -1.243
32952	  0.562	 -0.066	  0.436	  0.233	  0.085	 -9.698	 -0.014	 -0.008	  0.025	 32.300	 99.103	 -1.243
33002	  0.562	 -0.062	  0.433	  0.254	 -0.037	 -9.730	  0.041	  0.047	 -0.008	 32.300	 99.080	  0.842
33052	  0.562	 -0.063	  0.435	  0.262	 -0.050	 -9.698	  0.003	  0.008	 -0.014	 32.300	 99.092	 -0.246
33102	  0.562	 -0.060	  0.429	  0.240	  0.028	 -9.740	  0.002	  0.008	 -0.004	 32.300	 99.088	  0.117
33152	  0.562	 -0.062	  0.437	  0.234	  0.055	 -9.752	  0.002	  0.007	 -0.019	 32.300	 99.103	 -1.243
33202	  0.560	 -0.056	  0.433	  0.254	  0.026	 -9.742	 -0.005	  0.001	 -0.001	 32.300	 99.092	 -0.246
33252	  0.562	 -0.063	  0.437	  0.226	  0.049	 -9.764	 -0.005	 -0.000	 -0.011	 32.300	 99.092	 -0.246
33302	  0.562	 -0.064	  0.435	  0.264	 -0.041	 -9.785	 -0.010	 -0.005	  0.006	 32.300	 99.103	 -1.243
33352	  0.562	 -0.061	  0.436	  0.254	  0.035	 -9.755	 -0.019	 -0.016	  0.013	 32.300	 99.092	 -0.246
33402	  0.561	 -0.063	  0.437	  0.275	  0.181	 -9.734	 -0.006	 -0.001	  0.024	 32.300	 99.080	  0.842
33452	  0.562	 -0.068	  0.430	  0.203	  0.056	 -9.754	 -0.018	 -0.014	  0.018	 32.300	 99.092	 -0.246
33502	  0.564	 -0.068	  0.431	  0.234	 -0.065	 -9.751	 -0.007	  0.000	  0.028	 32.300	 99.103	 -1.243
33552	  0.563	 -0.071	  0.428	  0.225	 -0.041	 -9.732	 -0.013	 -0.010	  0.021	 32.300	 99.092	 -0.246
33602	  0.563	 -0.071	  0.431	  0.236	  0.010	 -9.765	 -0.003	  0.003	  0.001	 32.300	 99.092	 -0.246
33652	  0.567	 -0.067	  0.430	  0.215	  0.013	 -9.755	 -0.001	  0.005	 -0.002	 32.300	 99.088	  0.117
33702	  0.565	 -0.073	  0.430	  0.203	  0.008	 -9.784	 -0.008	 -0.003	  0.001	 32.300	 99.092	 -0.246
33752	  0.565	 -0.072	  0.433	  0.225	  0.024	 -9.731	 -0.011	 -0.006	 -0.001	 32.300	 99.088	  0.117
33802	  0.567	 -0.070	  0.432	  0.222	  0.021	 -9.743	 -0.008	 -0.002	  0.002	 32.300	 99.092	 -0.246
33852	  0.565	 -0.072	  0.427	  0.177	  0.046	 -9.753	 -0.002	  0.003	  0.002	 32.300	 99.103	 -1.243
33902	  0.566	 -0.074	  0.428	  0.223	  0.032	 -9.767	 -0.008	 -0.003	  0.001	 32.300	 99.092	 -0.246
33952	  0.565	 -0.072	  0.429	  0.276	 -0.020	 -9.783	 -0.010	 -0.007	  0.000	 32.300	 99.103	 -1.243
34002	  0.568	 -0.071	  0.435	  0.170	  0.040	 -9.762	 -0.002	  0.001	 -0.006	 32.300	 99.099	 -0.880
34052	  0.567	 -0.068	  0.433	  0.203	  0.038	 -9.732	  0.001	  0.006	 -0.004	 32.300	 99.103	 -1.243
34102	  0.567	 -0.072	  0.433	  0.181	  0.046	 -9.767	  0.002	  0.007	  0.000	 32.300	 99.092	 -0.246
34152	  0.567	 -0.068	  0.433	  0.193	  0.024	 -9.785	 -0.006	 -0.001	  0.000	 32.300	 99.092	 -0.246
34202	  0.570	 -0.073	  0.433	  0.213	  0.060	 -9.726	 -0.006	 -0.000	 -0.001	 32.300	 99.092	 -0.246
34252	  0.566	 -0.072	  0.433	  0.141	  0.130	 -9.758	 -0.003	  0.012	  0.004	 32.300	 99.092	 -0.246
34302	  0.568	 -0.070	  0.432	  0.245	 -0.003	 -9.777	 -0.008	 -0.003	  0.001	 32.300	 99.080	  0.842
34352	  0.567	 -0.076	  0.431	  0.220	  0.055	 -9.766	 -0.003	  0.002	  0.001	 32.300	 99.088	  0.117
34402	  0.568	 -0.071	  0.431	  0.239	  0.040	 -9.737	 -0.000	  0.006	 -0.000	 32.300	 99.088	  0.117
34452	  0.567	 -0.071	  0.430	  0.195	  0.024	 -9.762	 -0.002	  0.003	 -0.001	 32.300	 99.088	  0.117
34502	  0.567	 -0.074	  0.432	  0.224	  0.018	 -9.796	 -0.006	  0.000	  0.001	 32.300	 99.103	 -1.243
34552	  0.563	 -0.072	  0.429	  0.213	  0.010	 -9.768	 -0.006	  0.001	  0.000	 32.300	 99.099	 -0.880
34602	  0.564	 -0.077	  0.431	  0.218	  0.013	 -9.787	 -0.002	  0.004	 -0.001	 32.300	 99.092	 -0.246
34652	  0.568	 -0.072	  0.433	  0.232	  0.023	 -9.762	 -0.004	  0.000	  0.000	 32.300	 99.092	 -0.246
34702	  0.565	 -0.076	  0.434	  0.229	  0.012	 -9.760	 -0.005	  0.001	 -0.001	 32.300	 99.092	 -0.246
34752	  0.567	 -0.072	  0.434	  0.218	  0.030	 -9.757	 -0.003	  0.003	  0.000	 32.300	 99.088	  0.117
34802	  0.566	 -0.072	  0.433	  0.212	  0.035	 -9.791	 -0.006	  0.000	  0.001	 32.300	 99.096	 -0.608
34852	  0.567	 -0.075	  0.429	  0.232	  0.036	 -9.747	 -0.004	  0.002	 -0.001	 32.300	 99.092	 -0.246
34902	  0.567	 -0.071	  0.429	  0.201	  0.047	 -9.787	 -0.005	 -0.002	  0.000	 32.300	 99.088	  0.117
34952	  0.568	 -0.075	  0.431	  0.216	  0.015	 -9.739	 -0.006	 -0.000	 -0.000	 32.300	 99.103	 -1.243
35002	  0.566	 -0.074	  0.429	  0.218	  0.056	 -9.736	 -0.004	  0.002	 -0.002	 32.300	 99.092	 -0.246
35052	  0.566	 -0.074	  0.433	  0.204	  0.039	 -9.778	 -0.007	 -0.002	 -0.002	 32.300	 99.107	 -1.606
35102	  0.566	 -0.072	  0.430	  0.187	 -0.049	 -9.717	 -0.018	 -0.016	 -0.049	 32.300	 99.092	 -0.246
35152	  0.569	 -0.069	  0.432	  0.174	  0.091	 -9.767	 -0.007	 -0.002	 -0.046	 32.300	 99.088	  0.117
35202	  0.565	 -0.068	  0.430	  0.201	  0.038	 -9.753	 -0.004	  0.003	 -0.033	 32.300	 99.092	 -0.246
35252	  0.567	 -0.060	  0.434	  0.224	 -0.082	 -9.791	 -0.002	  0.007	 -0.061	 32.300	 99.092	 -0.246
35302	  0.567	 -0.059	  0.434	  0.177	  0.162	 -9.703	 -0.001	  0.004	 -0.091	 32.300	 99.080	  0.842
35352	  0.567	 -0.052	  0.435	  0.188	  0.127	 -9.700	 -0.008	 -0.004	 -0.088	 32.300	 99.092	 -0.246
35402	  0.567	 -0.054	  0.435	  0.187	  0.071	 -9.757	 -0.004	  0.002	 -0.029	 32.300	 99.092	 -0.246
35452	  0.566	 -0.049	  0.437	  0.205	  0.051	 -9.775	 -0.004	  0.003	 -0.020	 32.300	 99.092	 -0.246
35502	  0.569	 -0.047	  0.440	  0.160	  0.074	 -9.725	 -0.004	  0.003	 -0.025	 32.300	 99.088	  0.117
35552	  0.569	 -0.048	  0.440	  0.281	 -0.001	 -9.661	 -0.009	 -0.003	 -0.084	 32.300	 99.092	 -0.246
35602	  0.566	 -0.044	  0.443	  0.137	  0.077	 -9.754	 -0.002	  0.006	 -0.071	 32.300	 99.092	 -0.246
35652	  0.569	 -0.038	  0.444	  0.133	  0.129	 -9.776	 -0.003	  0.004	 -0.042	 32.300	 99.092	 -0.246
35703	  0.567	 -0.039	  0.444	  0.192	  0.023	 -9.767	 -0.002	  0.003	 -0.035	 32.300	 99.103	 -1.243
35752	  0.568	 -0.035	  0.446	  0.282	 -0.035	 -9.798	 -0.006	 -0.003	 -0.094	 32.300	 99.092	 -0.246
35802	  0.570	 -0.029	  0.448	  0.201	  0.077	 -9.766	 -0.008	 -0.009	 -0.127	 32.300	 99.092	 -0.246
35852	  0.585	 -0.086	  0.436	  1.288	 -3.530	 -9.885	 -0.050	 -0.093	  0.328	 32.300	 99.080	  0.842
35902	  0.591	 -0.102	  0.429	  0.243	 -0.949	 -9.936	 -0.013	 -0.021	  0.101	 32.300	 99.092	 -0.246
35952	  0.592	 -0.101	  0.437	  0.053	  0.041	 -9.903	  0.047	  0.058	 -0.025	 32.300	 99.092	 -0.246
36002	  0.586	 -0.096	  0.433	  0.347	  0.092	 -9.653	  0.023	  0.034	 -0.103	 32.300	 99.092	 -0.246
36053	  0.584	 -0.094	  0.441	  0.323	  0.069	 -9.585	  0.005	  0.012	 -0.009	 32.300	 99.092	 -0.246
36102	  0.584	 -0.087	  0.439	  0.235	 -0.012	 -9.734	 -0.001	  0.004	 -0.008	 32.300	 99.080	  0.842
36153	  0.586	 -0.091	  0.441	  0.246	 -0.026	 -9.760	 -0.016	 -0.005	 -0.014	 32.300	 99.092	 -0.246
36202	  0.586	 -0.091	  0.441	  0.241	 -0.072	 -9.742	 -0.003	  0.005	 -0.009	 32.300	 99.092	 -0.246
36252	  0.584	 -0.086	  0.440	  0.053	 -0.677	 -10.067	 -0.043	 -0.029	  0.018	 32.300	 99.092	 -0.246
36303	  0.582	 -0.086	  0.439	  0.273	  0.094	 -9.669	  0.009	  0.015	 -0.023	 32.300	 99.092	 -0.246
36352	  0.582	 -0.082	  0.437	  0.262	 -0.007	 -9.761	 -0.009	 -0.003	 -0.002	 32.300	 99.092	 -0.246
36403	  0.585	 -0.088	  0.441	  0.259	 -0.028	 -9.752	 -0.005	  0.000	  0.002	 32.300	 99.092	 -0.246
36452	  0.583	 -0.083	  0.442	  0.259	 -0.057	 -9.829	 -0.003	  0.004	  0.001	 32.300	 99.092	 -0.246
36502	  0.583	 -0.083	  0.439	  0.298	 -0.288	 -9.996	  0.080	  0.060	 -0.024	 32.300	 99.103	 -1.243
36553	  0.583	 -0.081	  0.446	  0.324	 -0.037	 -9.702	 -0.004	  0.002	  0.016	 32.300	 99.103	 -1.243
36603	  0.586	 -0.081	  0.439	  0.319	 -0.298	 -9.711	 -0.056	 -0.047	  0.023	 32.300	 99.080	  0.842
36653	  0.586	 -0.083	  0.440	  0.248	 -0.011	 -9.766	 -0.018	 -0.013	  0.142	 32.300	 99.088	  0.117
36703	  0.587	 -0.086	  0.441	  0.176	  0.236	 -9.698	  0.022	  0.026	 -0.001	 32.300	 99.092	 -0.246
36753	  0.586	 -0.086	  0.444	  0.248	 -0.049	 -9.822	  0.029	  0.031	 -0.023	 32.300	 99.092	 -0.246
36803	  0.583	 -0.080	  0.444	  0.238	  0.093	 -9.678	 -0.032	 -0.014	 -0.011	 32.300	 99.092	 -0.246
36853	  0.588	 -0.084	  0.446	  0.226	 -0.286	 -9.712	 -0.000	 -0.002	 -0.031	 32.300	 99.080	  0.842
36903	  0.585	 -0.077	  0.442	  0.236	  0.216	 -9.764	  0.017	  0.024	 -0.014	 32.300	 99.092	 -0.246
36953	  0.585	 -0.079	  0.443	  0.327	 -0.098	 -9.743	 -0.004	  0.003	 -0.002	 32.300	 99.092	 -0.246
37003	  0.584	 -0.075	  0.445	  0.290	 -0.075	 -9.775	  0.009	  0.008	 -0.005	 32.300	 99.092	 -0.246
37052	  0.585	 -0.076	  0.444	  0.249	 -0.092	 -9.839	 -0.009	 -0.002	 -0.007	 32.300	 99.092	 -0.246
37103	  0.583	 -0.074	  0.447	  0.299	  0.301	 -9.621	  0.086	  0.072	 -0.039	 32.300	 99.092	 -0.246
37152	  0.581	 -0.070	  0.446	  0.264	 -0.458	 -9.750	  0.023	  0.021	 -0.124	 32.300	 99.092	 -0.246
37202	  0.580	 -0.054	  0.450	  0.288	 -0.806	 -9.731	 -0.010	 -0.005	 -0.265	 32.300	 99.103	 -1.243
37252	  0.580	 -0.038	  0.459	  0.197	  1.321	 -9.985	 -0.012	 -0.004	 -0.171	 32.300	 99.092	 -0.246
37302	  0.579	 -0.036	  0.453	  0.700	 -0.320	 -9.832	  0.087	  0.081	  0.038	 32.300	 99.103	 -1.243
37352	  0.582	 -0.028	  0.464	  0.326	 -0.221	 -9.667	 -0.029	 -0.003	 -0.002	 32.300	 99.080	  0.842
37402	  0.592	 -0.058	  0.454	 -2.525	 -4.382	 -9.949	  0.856	  0.697	  0.333	 32.300	 99.092	 -0.246
37452	  0.591	 -0.054	  0.462	  0.505	 -0.278	 -9.602	 -0.161	 -0.126	  0.054	 32.300	 99.092	 -0.246
37502	  0.594	 -0.067	  0.453	  0.406	 -0.243	 -9.774	  0.032	  0.027	  0.120	 32.300	 99.103	 -1.243
37552	  0.598	 -0.061	  0.454	  0.095	 -0.080	 -9.893	  0.033	  0.065	 -0.049	 32.300	 99.092	 -0.246
37603	  0.594	 -0.065	  0.451	  0.383	 -0.223	 -9.690	  0.045	  0.049	 -0.060	 32.300	 99.092	 -0.246
37653	  0.594	 -0.053	  0.455	  0.178	  0.320	 -9.589	 -0.070	 -0.043	 -0.018	 32.300	 99.103	 -1.243
37703	  0.592	 -0.061	  0.460	  0.286	 -0.082	 -9.774	  0.014	  0.012	  0.005	 32.300	 99.103	 -1.243
37753	  0.594	 -0.061	  0.456	  0.406	 -0.201	 -9.660	 -0.019	 -0.000	  0.014	 32.300	 99.080	  0.842
37803	  0.591	 -0.060	  0.455	  0.274	  0.040	 -9.715	 -0.032	 -0.031	 -0.011	 32.300	 99.092	 -0.246
37853	  0.592	 -0.063	  0.450	  0.242	  0.004	 -9.694	 -0.057	 -0.056	 -0.004	 32.300	 99.092	 -0.246
37903	  0.592	 -0.068	  0.446	  0.233	 -0.028	 -9.702	 -0.081	 -0.081	  0.021	 32.300	 99.092	 -0.246
37952	  0.592	 -0.068	  0.443	  0.206	  0.061	 -9.758	 -0.010	  0.004	  0.001	 32.300	 99.092	 -0.246
38002	  0.593	 -0.069	  0.445	  0.178	  0.074	 -9.753	 -0.001	  0.002	 -0.000	 32.300	 99.092	 -0.246
38052	  0.593	 -0.062	  0.445	  0.181	  0.051	 -9.756	  0.000	 -0.002	 -0.001	 32.300	 99.080	  0.842
38102	  0.595	 -0.072	  0.448	  0.194	  0.035	 -9.708	  0.004	  0.003	 -0.001	 32.300	 99.080	  0.842
38152	  0.592	 -0.064	  0.449	  0.226	  0.024	 -9.764	 -0.005	  0.005	  0.001	 32.300	 99.092	 -0.246
38202	  0.594	 -0.072	  0.448	  0.297	 -0.003	 -9.449	  0.003	  0.009	  0.002	 32.300	 99.103	 -1.243
38252	  0.594	 -0.069	  0.444	  0.220	  0.067	 -9.665	 -0.006	 -0.001	 -0.003	 32.300	 99.103	 -1.243
38302	  0.590	 -0.072	  0.449	  0.191	  0.059	 -9.725	 -0.006	  0.006	 -0.000	 32.300	 99.092	 -0.246
38352	  0.591	 -0.071	  0.444	  0.229	  0.053	 -9.770	 -0.004	 -0.003	  0.001	 32.300	 99.092	 -0.246
38402	  0.590	 -0.069	  0.444	  0.198	  0.083	 -9.792	 -0.002	  0.005	 -0.001	 32.300	 99.080	  0.842
38452	  0.592	 -0.070	  0.442	  0.206	  0.057	 -9.714	 -0.003	  0.003	  0.000	 32.300	 99.092	 -0.246
38502	  0.592	 -0.069	  0.446	  0.208	  0.079	 -9.766	 -0.004	  0.002	  0.001	 32.300	 99.092	 -0.246
38552	  0.592	 -0.063	  0.446	  0.190	  0.076	 -9.779	 -0.002	  0.002	  0.000	 32.300	 99.088	  0.117
38602	  0.591	 -0.067	  0.443	  0.190	  0.052	 -9.772	 -0.003	  0.003	 -0.000	 32.300	 99.096	 -0.608
38652	  0.594	 -0.066	  0.449	  0.176	  0.057	 -9.740	 -0.004	  0.003	  0.001	 32.300	 99.092	 -0.246
38702	  0.592	 -0.071	  0.445	  0.175	  0.062	 -9.754	 -0.003	  0.003	  0.000	 32.300	 99.092	 -0.246
38752	  0.594	 -0.068	  0.447	  0.152	  0.051	 -9.787	 -0.003	  0.002	 -0.001	 32.300	 99.092	 -0.246
38802	  0.591	 -0.071	  0.445	  0.185	  0.044	 -9.789	 -0.003	  0.001	 -0.000	 32.300	 99.080	  0.842
38852	  0.593	 -0.066	  0.446	  0.149	  0.061	 -9.785	 -0.003	  0.003	  0.000	 32.300	 99.092	 -0.246
38902	  0.591	 -0.066	  0.445	  0.169	  0.084	 -9.737	 -0.003	  0.003	  0.000	 32.300	 99.092	 -0.246
38952	  0.593	 -0.069	  0.441	  0.178	  0.080	 -9.775	 -0.003	  0.001	  0.000	 32.300	 99.080	  0.842
39002	  0.590	 -0.071	  0.447	  0.187	  0.086	 -9.739	 -0.003	  0.002	 -0.000	 32.300	 99.080	  0.842
39052	  0.594	 -0.070	  0.445	  0.189	  0.064	 -9.758	 -0.005	  0.003	  0.000	 32.300	 99.092	 -0.246
39102	  0.590	 -0.064	  0.446	  0.189	  0.057	 -9.736	 -0.004	  0.003	  0.000	 32.300	 99.096	 -0.608
39152	  0.591	 -0.065	  0.447	  0.179	  0.073	 -9.765	 -0.003	  0.004	 -0.000	 32.300	 99.080	  0.842
39202	  0.594	 -0.066	  0.444	  0.179	  0.064	 -9.745	 -0.003	  0.000	 -0.001	 32.300	 99.092	 -0.246
39252	  0.592	 -0.068	  0.443	  0.167	  0.063	 -9.739	 -0.003	  0.001	 -0.000	 32.300	 99.080	  0.842
39302	  0.592	 -0.065	  0.447	  0.206	  0.057	 -9.746	 -0.003	  0.002	 -0.001	 32.300	 99.080	  0.842
39352	  0.593	 -0.064	  0.444	  0.194	  0.077	 -9.766	 -0.002	  0.002	  0.000	 32.300	 99.092	 -0.246
39402	  0.591	 -0.066	  0.447	  0.178	  0.048	 -9.746	 -0.003	  0.002	  0.001	 32.300	 99.096	 -0.608
39452	  0.591	 -0.069	  0.441	  0.176	  0.049	 -9.780	 -0.004	  0.003	 -0.001	 32.300	 99.092	 -0.246
39502	  0.593	 -0.065	  0.446	  0.188	  0.062	 -9.761	 -0.003	  0.002	 -0.000	 32.300	 99.092	 -0.246
39552	  0.593	 -0.064	  0.446	  0.185	  0.051	 -9.755	 -0.002	  0.002	  0.001	 32.300	 99.080	  0.842
39602	  0.596	 -0.071	  0.442	  0.202	  0.054	 -9.753	 -0.003	  0.001	  0.001	 32.300	 99.080	  0.842
39652	  0.596	 -0.069	  0.444	  0.191	  0.076	 -9.753	 -0.004	  0.003	 -0.000	 32.300	 99.092	 -0.246
39702	  0.593	 -0.071	  0.445	  0.172	  0.053	 -9.764	 -0.004	  0.003	  0.001	 32.300	 99.080	  0.842
39752	  0.594	 -0.066	  0.443	  0.215	  0.043	 -9.781	 -0.003	  0.002	 -0.000	 32.300	 99.092	 -0.246
39802	  0.594	 -0.067	  0.443	  0.192	  0.049	 -9.782	 -0.003	  0.003	  0.000	 32.300	 99.092	 -0.246
39852	  0.592	 -0.066	  0.444	  0.203	  0.055	 -9.728	 -0.003	  0.003	 -0.000	 32.300	 99.092	 -0.246
39902	  0.594	 -0.068	  0.442	  0.200	  0.049	 -9.737	 -0.003	  0.003	  0.001	 32.300	 99.092	 -0.246
39952	  0.593	 -0.071	  0.445	  0.190	  0.077	 -9.738	 -0.004	  0.001	 -0.000	 32.300	 99.080	  0.842
40002	  0.594	 -0.065	  0.445	  0.174	  0.058	 -9.737	 -0.003	  0.002	  0.001	 32.300	 99.092	 -0.246
40052	  0.591	 -0.069	  0.442	  0.164	  0.055	 -9.757	 -0.003	  0.002	 -0.000	 32.300	 99.092	 -0.246
40102	  0.593	 -0.068	  0.448	  0.181	  0.077	 -9.777	 -0.003	  0.002	 -0.000	 32.300	 99.096	 -0.608
40152	  0.593	 -0.069	  0.444	  0.189	  0.085	 -9.754	 -0.002	  0.002	  0.000	 32.300	 99.103	 -1.243
40202	  0.592	 -0.069	  0.448	  0.171	  0.054	 -9.771	 -0.002	  0.002	  0.001	 32.300	 99.080	  0.842
40252	  0.591	 -0.064	  0.443	  0.196	  0.079	 -9.754	 -0.004	  0.002	 -0.000	 32.300	 99.092	 -0.246
40302	  0.591	 -0.069	  0.447	  0.150	  0.068	 -9.756	 -0.003	  0.003	  0.000	 32.300	 99.092	 -0.246
40352	  0.594	 -0.069	  0.445	  0.204	  0.055	 -9.765	 -0.004	  0.003	 -0.000	 32.300	 99.080	  0.842
40402	  0.591	 -0.065	  0.447	  0.148	  0.085	 -9.734	 -0.002	  0.003	  0.001	 32.300	 99.088	  0.117
40452	  0.591	 -0.065	  0.443	  0.176	  0.059	 -9.743	 -0.004	  0.003	  0.000	 32.300	 99.092	 -0.246
40502	  0.592	 -0.071	  0.445	  0.178	  0.064	 -9.762	 -0.003	  0.002	  0.001	 32.300	 99.092	 -0.246
40552	  0.591	 -0.067	  0.441	  0.168	  0.071	 -9.771	 -0.004	  0.002	  0.001	 32.300	 99.080	  0.842
40602	  0.591	 -0.063	  0.445	  0.176	  0.071	 -9.760	 -0.003	  0.003	  0.001	 32.300	 99.092	 -0.246
40652	  0.592	 -0.061	  0.444	  0.201	  0.052	 -9.762	 -0.004	  0.002	  0.001	 32.300	 99.085	  0.389
40702	  0.592	 -0.068	  0.444	  0.170	  0.070	 -9.798	 -0.003	  0.003	  0.000	 32.300	 99.092	 -0.246
40752	  0.590	 -0.067	  0.442	  0.179	  0.056	 -9.778	 -0.003	  0.003	  0.000	 32.300	 99.103	 -1.243
40802	  0.594	 -0.069	  0.444	  0.182	  0.049	 -9.768	 -0.004	  0.002	 -0.001	 32.300	 99.092	 -0.246
40852	  0.592	 -0.071	  0.444	  0.167	  0.068	 -9.770	 -0.003	  0.002	  0.001	 32.300	 99.096	 -0.608
40902	  0.593	 -0.066	  0.445	  0.174	  0.062	 -9.780	 -0.003	  0.002	  0.001	 32.300	 99.092	 -0.246
40952	  0.591	 -0.066	  0.442	  0.164	  0.059	 -9.765	 -0.003	  0.002	  0.001	 32.300	 99.096	 -0.608
41002	  0.593	 -0.065	  0.444	  0.155	  0.063	 -9.754	 -0.003	  0.002	  0.001	 32.300	 99.085	  0.389
41052	  0.592	 -0.069	  0.442	  0.214	  0.069	 -9.747	 -0.003	  0.002	  0.001	 32.300	 99.092	 -0.246
41102	  0.591	 -0.067	  0.444	  0.190	  0.090	 -9.769	 -0.004	  0.002	  0.001	 32.300	 99.092	 -0.246
41152	  0.593	 -0.066	  0.443	  0.185	  0.064	 -9.721	 -0.004	  0.003	 -0.001	 32.300	 99.092	 -0.246
41202	  0.591	 -0.068	  0.444	  0.165	  0.046	 -9.722	 -0.004	  0.002	 -0.000	 32.300	 99.103	 -1.243
41252	  0.592	 -0.070	  0.446	  0.153	  0.046	 -9.794	 -0.004	  0.000	  0.000	 32.300	 99.092	 -0.246
41302	  0.594	 -0.071	  0.441	  0.153	  0.079	 -9.751	 -0.003	  0.002	  0.001	 32.300	 99.107	 -1.606
41352	  0.591	 -0.071	  0.445	  0.187	  0.046	 -9.762	 -0.003	  0.002	 -0.000	 32.300	 99.092	 -0.246
41402	  0.594	 -0.067	  0.447	  0.176	  0.070	 -9.753	 -0.003	  0.001	 -0.000	 32.300	 99.092	 -0.246
41452	  0.593	 -0.068	  0.445	  0.176	  0.078	 -9.780	 -0.005	  0.003	  0.000	 32.300	 99.096	 -0.608
41503	  0.593	 -0.074	  0.442	  0.179	  0.074	 -9.758	 -0.003	  0.003	  0.001	 32.300	 99.103	 -1.243
41552	  0.593	 -0.068	  0.443	  0.151	  0.078	 -9.749	 -0.004	  0.002	  0.000	 32.300	 99.096	 -0.608
41602	  0.592	 -0.070	  0.444	  0.172	  0.078	 -9.790	 -0.003	  0.003	 -0.001	 32.300	 99.092	 -0.246
41652	  0.591	 -0.069	  0.441	  0.184	  0.034	 -9.755	 -0.003	  0.002	 -0.001	 32.300	 99.103	 -1.243
41702	  0.591	 -0.073	  0.437	  0.182	  0.052	 -9.777	 -0.003	  0.002	  0.000	 32.300	 99.092	 -0.246
41752	  0.594	 -0.069	  0.445	  0.201	  0.062	 -9.754	 -0.003	  0.003	  0.000	 32.300	 99.096	 -0.608
41802	  0.591	 -0.069	  0.441	  0.208	  0.049	 -9.775	 -0.003	  0.002	 -0.001	 32.300	 99.092	 -0.246
41853	  0.592	 -0.070	  0.442	  0.197	  0.075	 -9.739	 -0.003	  0.003	 -0.000	 32.300	 99.080	  0.842
41902	  0.594	 -0.061	  0.445	  0.181	  0.062	 -9.766	 -0.004	  0.002	  0.000	 32.300	 99.080	  0.842
41952	  0.591	 -0.068	  0.444	  0.196	  0.073	 -9.739	 -0.004	  0.002	  0.001	 32.300	 99.103	 -1.243
42002	  0.594	 -0.068	  0.443	  0.177	  0.058	 -9.731	 -0.004	  0.002	  0.001	 32.300	 99.092	 -0.246
42052	  0.592	 -0.068	  0.445	  0.211	  0.066	 -9.761	 -0.003	  0.002	 -0.001	 32.300	 99.092	 -0.246
42103	  0.594	 -0.064	  0.451	  0.184	  0.081	 -9.757	 -0.003	  0.003	  0.000	 32.300	 99.092	 -0.246
42152	  0.590	 -0.070	  0.443	  0.156	  0.081	 -9.773	 -0.003	  0.003	  0.000	 32.300	 99.092	 -0.246
42203	  0.593	 -0.064	  0.449	  0.173	  0.088	 -9.724	 -0.002	  0.004	  0.000	 32.300	 99.096	 -0.608
42253	  0.592	 -0.066	  0.442	  0.176	  0.055	 -9.750	 -0.003	  0.000	  0.001	 32.300	 99.080	  0.842
42303	  0.593	 -0.071	  0.445	  0.183	  0.056	 -9.808	 -0.003	  0.002	 -0.002	 32.300	 99.092	 -0.246
42353	  0.592	 -0.069	  0.443	  0.169	  0.066	 -9.758	 -0.004	  0.001	  0.001	 32.300	 99.092	 -0.246
42403	  0.595	 -0.071	  0.443	  0.209	  0.041	 -9.767	 -0.002	  0.004	 -0.003	 32.300	 99.092	 -0.246
42453	  0.591	 -0.068	  0.443	  0.162	  0.139	 -9.711	 -0.001	  0.004	  0.002	 32.300	 99.092	 -0.246
42503	  0.592	 -0.069	  0.444	  0.167	  0.056	 -9.802	 -0.002	  0.006	 -0.001	 32.300	 99.092	 -0.246
42553	  0.592	 -0.070	  0.443	  0.168	  0.053	 -9.740	 -0.003	  0.003	  0.001	 32.300	 99.096	 -0.608
42603	  0.593	 -0.066	  0.445	  0.197	  0.076	 -9.730	 -0.004	  0.002	  0.000	 32.300	 99.092	 -0.246
42653	  0.591	 -0.070	  0.445	  0.191	  0.082	 -9.775	 -0.003	  0.002	 -0.000	 32.300	 99.096	 -0.608
42703	  0.593	 -0.067	  0.443	  0.179	  0.053	 -9.740	 -0.003	  0.003	  0.000	 32.300	 99.092	 -0.246
42753	  0.594	 -0.069	  0.445	  0.186	  0.073	 -9.755	 -0.004	  0.001	  0.001	 32.300	 99.092	 -0.246
42803	  0.594	 -0.070	  0.445	  0.207	  0.051	 -9.762	 -0.004	  0.002	  0.000	 32.300	 99.096	 -0.608
42853	  0.592	 -0.069	  0.444	  0.195	  0.066	 -9.784	 -0.002	  0.003	 -0.000	 32.300	 99.085	  0.389
42903	  0.592	 -0.068	  0.441	  0.187	  0.042	 -9.769	 -0.003	  0.004	  0.001	 32.300	 99.103	 -1.243
42953	  0.591	 -0.066	  0.442	  0.193	  0.077	 -9.799	 -0.003	  0.002	  0.001	 32.300	 99.096	 -0.608
43003	  0.590	 -0.067	  0.447	  0.200	  0.041	 -9.684	 -0.005	 -0.002	 -0.000	 32.300	 99.085	  0.389
43053	  0.590	 -0.070	  0.443	  0.186	  0.050	 -9.725	 -0.003	  0.001	 -0.000	 32.300	 99.096	 -0.608
43103	  0.590	 -0.069	  0.444	  0.214	  0.019	 -9.777	 -0.002	  0.006	 -0.002	 32.300	 99.092	 -0.246
43153	  0.591	 -0.071	  0.441	  0.201	  0.060	 -9.768	 -0.003	  0.003	  0.001	 32.300	 99.092	 -0.246
43203	  0.592	 -0.068	  0.443	  0.164	  0.079	 -9.731	 -0.002	  0.003	 -0.000	 32.300	 99.092	 -0.246
43253	  0.592	 -0.070	  0.440	  0.165	  0.080	 -9.694	 -0.005	  0.001	  0.003	 32.300	 99.096	 -0.608
43303	  0.592	 -0.069	  0.445	  0.181	  0.096	 -9.701	 -0.003	  0.001	  0.002	 32.300	 99.103	 -1.243
43353	  0.593	 -0.067	  0.443	  0.180	  0.063	 -9.772	 -0.001	  0.006	  0.001	 32.300	 99.092	 -0.246
43403	  0.590	 -0.069	  0.445	  0.300	  0.191	 -9.769	  0.081	  0.099	  0.004	 32.300	 99.103	 -1.243
43453	  0.588	 -0.074	  0.449	  0.349	 -0.122	 -9.448	  0.306	  0.260	  0.329	 32.300	 99.103	 -1.243
43503	  0.579	 -0.067	  0.457	  0.561	 -0.320	 -9.811	  0.550	  0.446	  0.442	 32.300	 99.092	 -0.246
43553	  0.569	 -0.075	  0.465	  0.562	  0.032	 -9.313	  0.321	  0.276	  0.335	 32.300	 99.085	  0.389
43603	  0.570	 -0.092	  0.469	  0.762	 -0.886	 -9.759	  0.064	  0.092	  0.517	 32.300	 99.092	 -0.246
43653	  0.570	 -0.093	  0.472	  0.715	 -0.770	 -9.813	  0.281	 -0.063	 -0.050	 32.300	 99.092	 -0.246
43703	  0.564	 -0.079	  0.476	  1.083	  0.187	 -9.571	  0.183	  0.155	  0.151	 32.300	 99.096	 -0.608
43753	  0.558	 -0.092	  0.481	  1.352	 -0.747	 -9.465	 -0.063	  0.045	  0.563	 32.300	 99.092	 -0.246
43803	  0.567	 -0.105	  0.469	  1.090	 -1.570	 -9.784	 -0.180	 -0.432	  0.573	 32.300	 99.080	  0.842
43853	  0.575	 -0.133	  0.456	  0.421	 -0.912	 -9.617	 -0.066	 -0.319	  0.849	 32.300	 99.096	 -0.608
43903	  0.583	 -0.141	  0.442	  0.856	 -1.527	 -9.818	  0.272	 -0.142	  0.467	 32.300	 99.096	 -0.608
43953	  0.589	 -0.138	  0.449	 -0.430	 -1.090	 -9.961	  0.546	  0.270	  0.412	 32.300	 99.092	 -0.246
44003	  0.583	 -0.134	  0.457	  0.394	 -1.435	 -9.568	  0.708	  0.212	  0.308	 32.300	 99.092	 -0.246
44053	  0.582	 -0.129	  0.461	  0.572	 -1.877	 -9.751	  0.506	 -0.091	  0.330	 32.300	 99.096	 -0.608
44103	  0.585	 -0.118	  0.453	  0.666	 -2.541	 -9.338	  0.335	 -0.138	  0.249	 32.300	 99.096	 -0.608
44153	  0.587	 -0.102	  0.444	 -0.557	 -1.691	 -10.055	 -0.088	 -0.401	  0.393	 32.300	 99.092	 -0.246
44203	  0.588	 -0.090	  0.433	  0.110	 -2.107	 -9.133	 -0.282	 -0.249	  0.134	 32.300	 99.096	 -0.608
44253	  0.585	 -0.065	  0.435	  0.421	 -2.121	 -8.204	 -0.319	  0.127	 -0.067	 32.300	 99.092	 -0.246
44303	  0.577	 -0.040	  0.451	 -0.976	 -1.148	 -9.638	  0.098	  0.149	  0.093	 32.300	 99.085	  0.389
44352	  0.563	 -0.026	  0.463	 -0.203	 -1.713	 -9.901	  0.035	  0.374	  0.192	 32.300	 99.107	 -1.606
44402	  0.553	 -0.019	  0.472	  0.180	 -1.477	 -10.194	 -0.249	 -0.060	  0.152	 32.300	 99.080	  0.842
44452	  0.551	 -0.013	  0.468	  0.314	 -1.281	 -9.689	 -0.495	 -0.141	  0.081	 32.300	 99.092	 -0.246
44502	  0.551	 -0.021	  0.464	  0.005	 -0.645	 -9.473	 -0.220	  0.032	 -0.001	 32.300	 99.092	 -0.246
44552	  0.546	 -0.009	  0.466	  0.050	 -1.371	 -9.872	  0.040	  0.183	 -0.032	 32.300	 99.092	 -0.246
44602	  0.544	 -0.009	  0.470	  0.198	 -1.396	 -9.749	 -0.015	  0.188	  0.009	 32.300	 99.092	 -0.246
44652	  0.537	 -0.003	  0.470	  0.455	 -1.490	 -9.759	 -0.064	 -0.027	 -0.078	 32.300	 99.092	 -0.246
44702	  0.537	  0.004	  0.465	 -0.073	 -1.356	 -9.251	 -0.093	 -0.186	 -0.092	 32.300	 99.092	 -0.246
44752	  0.537	  0.010	  0.458	  0.141	 -1.158	 -9.560	 -0.135	 -0.211	 -0.037	 32.300	 99.085	  0.389
44802	  0.540	  0.014	  0.458	 -0.142	 -0.912	 -9.290	 -0.033	 -0.068	  0.099	 32.300	 99.092	 -0.246
44852	  0.530	  0.011	  0.457	 -1.089	 -0.696	 -9.970	  0.194	  0.081	  0.264	 32.300	 99.092	 -0.246
44902	  0.521	  0.015	  0.457	  0.720	 -1.562	 -10.060	  0.286	  0.161	  0.139	 32.300	 99.096	 -0.608
44952	  0.511	  0.027	  0.458	  0.841	 -1.497	 -10.545	  0.077	  0.152	  0.100	 32.300	 99.092	 -0.246
45002	  0.499	  0.024	  0.458	  0.172	 -0.934	 -9.917	 -0.431	  0.119	  0.003	 32.300	 99.085	  0.389
45052	  0.492	  0.016	  0.460	  0.527	 -1.122	 -9.336	 -0.411	  0.292	  0.095	 32.300	 99.092	 -0.246
45102	  0.482	  0.013	  0.468	  0.651	 -0.669	 -9.315	 -0.023	  0.196	  0.057	 32.300	 99.085	  0.389
45152	  0.479	  0.010	  0.466	  1.068	 -1.218	 -9.972	  0.061	  0.111	  0.007	 32.300	 99.080	  0.842
45202	  0.475	  0.015	  0.470	  0.811	 -1.118	 -10.242	 -0.075	  0.164	  0.005	 32.300	 99.096	 -0.608
45252	  0.469	  0.015	  0.476	  0.930	 -0.911	 -10.380	 -0.199	  0.237	 -0.022	 32.300	 99.092	 -0.246
45302	  0.464	  0.012	  0.474	  1.448	 -1.133	 -10.691	 -0.256	  0.399	 -0.018	 32.300	 99.096	 -0.608
45352	  0.450	 -0.016	  0.446	  1.418	 -0.917	 -10.608	 -0.398	  0.533	 -0.026	 32.300	 99.096	 -0.608
45402	  0.431	 -0.020	  0.450	  1.571	 -0.419	 -10.170	 -0.553	  0.601	  0.107	 32.300	 99.085	  0.389
45452	  0.408	 -0.027	  0.472	  1.731	 -0.355	 -9.879	 -0.633	  0.570	  0.034	 32.300	 99.107	 -1.606
45502	  0.389	 -0.032	  0.477	  1.337	  0.124	 -9.621	 -0.523	  0.155	  0.043	 32.300	 99.092	 -0.246
45552	  0.368	 -0.036	  0.482	  1.230	  0.297	 -9.880	 -0.425	  0.275	 -0.010	 32.300	 99.092	 -0.246
45602	  0.349	 -0.032	  0.486	  1.313	  0.697	 -10.125	 -0.297	  0.236	  0.175	 32.300	 99.092	 -0.246
45652	  0.327	 -0.041	  0.484	  1.356	  0.650	 -9.683	 -0.422	  0.233	  0.160	 32.300	 99.080	  0.842
45702	  0.310	 -0.047	  0.474	  2.258	  0.695	 -10.347	 -0.343	  0.324	  0.181	 32.300	 99.103	 -1.243
45752	  0.284	 -0.056	  0.474	  1.797	  1.098	 -8.606	 -0.460	  0.267	  0.152	 32.300	 99.080	  0.842
45802	  0.272	 -0.060	  0.464	  2.054	  0.957	 -9.010	 -0.061	 -0.080	  0.239	 32.300	 99.092	 -0.246
45852	  0.264	 -0.057	  0.455	  2.551	  0.276	 -9.569	 -0.052	  0.024	  0.140	 32.300	 99.080	  0.842
45902	  0.258	 -0.063	  0.442	  2.049	  0.680	 -9.138	 -0.493	 -0.115	  0.021	 32.300	 99.085	  0.389
45952	  0.259	 -0.077	  0.433	  2.471	  1.248	 -9.015	 -0.672	 -0.196	  0.168	 32.300	 99.085	  0.389
46002	  0.253	 -0.084	  0.423	  2.621	  1.382	 -8.547	 -0.499	  0.013	  0.043	 32.300	 99.096	 -0.608
46052	  0.249	 -0.097	  0.416	  2.424	  1.733	 -8.084	 -0.418	 -0.130	  0.101	 32.300	 99.085	  0.389
46102	  0.251	 -0.103	  0.407	  2.514	  1.638	 -7.938	 -0.202	 -0.272	  0.028	 32.300	 99.096	 -0.608
46152	  0.260	 -0.103	  0.399	  2.100	  1.779	 -8.718	  0.046	 -0.353	  0.070	 32.300	 99.096	 -0.608
46202	  0.264	 -0.102	  0.393	  2.241	  1.660	 -9.563	  0.105	 -0.281	  0.137	 32.300	 99.096	 -0.608
46252	  0.270	 -0.099	  0.387	  1.695	  1.527	 -9.965	 -0.119	 -0.163	  0.113	 32.300	 99.085	  0.389
46302	  0.267	 -0.105	  0.383	  1.576	  1.514	 -9.808	 -0.291	 -0.101	  0.190	 32.300	 99.096	 -0.608
46352	  0.268	 -0.113	  0.382	  1.569	  1.699	 -9.958	 -0.321	 -0.128	  0.240	 32.300	 99.080	  0.842
46402	  0.268	 -0.121	  0.375	  1.639	  1.784	 -9.624	 -0.385	 -0.175	  0.359	 32.300	 99.080	  0.842
46452	  0.266	 -0.128	  0.369	  1.427	  2.005	 -9.537	 -0.325	 -0.338	  0.412	 32.300	 99.085	  0.389
46502	  0.267	 -0.139	  0.357	  1.306	  2.096	 -9.534	 -0.301	 -0.350	  0.565	 32.300	 99.085	  0.389
46552	  0.270	 -0.148	  0.350	  1.625	  2.015	 -9.819	 -0.418	 -0.368	  0.667	 32.300	 99.080	  0.842
46602	  0.270	 -0.159	  0.338	  1.313	  2.700	 -8.841	 -0.698	 -0.471	  0.696	 32.300	 99.080	  0.842
46652	  0.269	 -0.176	  0.317	  1.783	  2.967	 -9.553	 -0.386	 -0.522	  0.789	 32.300	 99.080	  0.842
46702	  0.266	 -0.190	  0.309	  0.978	  2.901	 -9.007	 -0.197	 -0.347	  0.698	 32.300	 99.085	  0.389
46752	  0.268	 -0.193	  0.303	  0.815	  2.702	 -8.836	  0.049	 -0.465	  0.782	 32.300	 99.085	  0.389
46802	  0.265	 -0.192	  0.292	  0.807	  2.475	 -9.301	  0.134	 -0.563	  0.850	 32.300	 99.080	  0.842
46852	  0.264	 -0.193	  0.279	  0.481	  2.652	 -9.451	  0.059	 -0.704	  0.930	 32.300	 99.085	  0.389
46902	  0.263	 -0.205	  0.267	  0.605	  2.566	 -9.712	 -0.181	 -0.659	  1.069	 32.300	 99.096	 -0.608
46952	  0.260	 -0.218	  0.255	  0.776	  2.794	 -9.585	 -0.480	 -0.457	  1.307	 32.300	 99.096	 -0.608
47002	  0.245	 -0.232	  0.243	  1.245	  2.883	 -8.974	 -0.242	 -0.348	  1.307	 32.300	 99.096	 -0.608
47052	  0.233	 -0.240	  0.239	  1.168	  2.460	 -8.519	 -0.003	 -0.366	  1.148	 32.300	 99.085	  0.389
47102	  0.226	 -0.249	  0.229	  1.121	  2.393	 -8.455	  0.056	 -0.599	  1.079	 32.300	 99.085	  0.389
47152	  0.218	 -0.250	  0.224	  1.021	  2.669	 -8.991	  0.166	 -0.649	  1.037	 32.300	 99.085	  0.389
47202	  0.213	 -0.253	  0.218	  1.131	  3.140	 -9.401	 -0.077	 -0.532	  1.024	 32.300	 99.073	  1.477
47252	  0.206	 -0.264	  0.212	  1.442	  3.118	 -9.099	 -0.132	 -0.340	  0.879	 32.300	 99.092	 -0.246
47302	  0.200	 -0.269	  0.213	  1.106	  3.081	 -8.716	 -0.057	 -0.356	  0.863	 32.300	 99.085	  0.389
47352	  0.195	 -0.276	  0.207	  1.097	  2.922	 -9.014	  0.201	 -0.280	  0.817	 32.300	 99.073	  1.477
47402	  0.188	 -0.276	  0.207	  0.256	  2.463	 -8.916	  0.235	 -0.385	  0.706	 32.300	 99.080	  0.842
47452	  0.181	 -0.279	  0.202	 -0.319	  2.314	 -9.859	 -0.076	 -0.248	  0.909	 32.300	 99.092	 -0.246
47502	  0.174	 -0.282	  0.203	 -0.350	  2.382	 -9.429	 -0.217	 -0.494	  1.094	 32.300	 99.080	  0.842
47552	  0.164	 -0.296	  0.196	 -0.306	  2.425	 -9.262	 -0.141	 -0.346	  1.242	 32.300	 99.085	  0.389
47602	  0.148	 -0.299	  0.195	 -0.801	  2.382	 -9.302	 -0.100	 -0.039	  1.351	 32.300	 99.096	 -0.608
47653	  0.128	 -0.311	  0.194	 -0.762	  2.444	 -9.082	 -0.127	 -0.020	  1.352	 32.300	 99.085	  0.389
47702	  0.106	 -0.312	  0.193	 -0.862	  2.672	 -9.342	 -0.175	 -0.227	  1.312	 32.300	 99.092	 -0.246
47753	  0.092	 -0.319	  0.190	  0.126	  3.323	 -9.332	 -0.098	 -0.325	  1.134	 32.300	 99.069	  1.840
47802	  0.082	 -0.316	  0.186	  0.158	  3.742	 -9.755	 -0.109	 -0.446	  0.745	 32.300	 99.092	 -0.246
47853	  0.076	 -0.315	  0.188	  0.992	  3.695	 -9.461	  0.005	 -0.531	  0.724	 32.300	 99.085	  0.389
47902	  0.073	 -0.315	  0.191	  1.580	  3.062	 -9.796	  0.122	 -0.342	  0.617	 32.300	 99.096	 -0.608
47952	  0.066	 -0.312	  0.197	  0.862	  3.797	 -9.244	  0.083	 -0.184	  0.507	 32.300	 99.092	 -0.246
48003	  0.062	 -0.310	  0.197	  1.547	  3.096	 -9.043	  0.100	 -0.161	  0.486	 32.300	 99.085	  0.389
48052	  0.057	 -0.305	  0.199	  1.217	  3.263	 -8.846	  0.128	 -0.038	  0.349	 32.300	 99.080	  0.842
48103	  0.051	 -0.304	  0.204	  1.541	  3.459	 -8.434	  0.081	  0.048	  0.304	 32.300	 99.085	  0.389
48153	  0.046	 -0.303	  0.202	  1.828	  3.562	 -8.718	  0.021	  0.133	  0.155	 32.300	 99.080	  0.842
48203	  0.042	 -0.305	  0.205	  1.350	  3.701	 -8.365	 -0.054	  0.004	  0.025	 32.300	 99.085	  0.389
48253	  0.040	 -0.300	  0.203	  1.141	  3.787	 -8.618	  0.029	 -0.272	  0.066	 32.300	 99.085	  0.389
48303	  0.043	 -0.294	  0.204	  0.682	  3.478	 -8.898	  0.095	 -0.202	  0.036	 32.300	 99.069	  1.840
48353	  0.045	 -0.289	  0.207	  0.805	  3.434	 -9.408	  0.344	 -0.047	  0.061	 32.300	 99.080	  0.842
48403	  0.041	 -0.288	  0.207	  0.415	  3.027	 -10.094	  0.407	  0.175	  0.109	 32.300	 99.080	  0.842
48453	  0.035	 -0.281	  0.213	  0.270	  2.451	 -10.280	 -0.117	 -0.009	  0.094	 32.300	 99.096	 -0.608
48503	  0.036	 -0.290	  0.205	  0.741	  2.559	 -9.663	 -0.672	 -0.165	  0.098	 32.300	 99.080	  0.842
48553	  0.038	 -0.296	  0.205	  0.321	  3.062	 -8.716	 -0.262	 -0.269	  0.068	 32.300	 99.085	  0.389
48603	  0.041	 -0.290	  0.201	  0.215	  2.805	 -9.292	  0.270	 -0.059	 -0.053	 32.300	 99.092	 -0.246
48653	  0.040	 -0.288	  0.205	  0.470	  2.331	 -9.831	  0.124	  0.251	 -0.141	 32.300	 99.080	  0.842
48703	  0.036	 -0.287	  0.205	  0.470	  2.742	 -8.820	 -0.206	  0.233	 -0.376	 32.300	 99.085	  0.389
48753	  0.043	 -0.283	  0.203	  0.517	  2.231	 -8.137	 -0.073	 -0.105	 -0.630	 32.300	 99.073	  1.477
48803	  0.057	 -0.285	  0.203	 -0.458	  2.458	 -7.903	  0.272	 -0.246	 -0.877	 32.300	 99.080	  0.842
48853	  0.069	 -0.274	  0.204	 -1.109	  2.147	 -9.199	  0.346	 -0.100	 -0.961	 32.300	 99.085	  0.389
48903	  0.079	 -0.270	  0.210	 -1.770	  2.441	 -10.158	 -0.093	  0.276	 -0.868	 32.300	 99.069	  1.840
48953	  0.084	 -0.271	  0.208	 -2.099	  2.909	 -10.216	 -0.482	  0.554	 -0.625	 32.300	 99.096	 -0.608
49003	  0.083	 -0.273	  0.201	 -1.037	  3.210	 -9.668	 -0.173	  0.381	 -0.781	 32.300	 99.092	 -0.246
49053	  0.090	 -0.274	  0.201	 -0.663	  1.897	 -10.184	 -0.203	  0.422	 -1.257	 32.300	 99.096	 -0.608
49103	  0.099	 -0.266	  0.202	 -0.270	  2.033	 -9.727	 -0.463	  0.485	 -1.201	 32.300	 99.085	  0.389
49153	  0.112	 -0.273	  0.198	 -0.298	  2.138	 -9.749	 -0.275	  0.398	 -1.344	 32.300	 99.085	  0.389
49203	  0.118	 -0.267	  0.198	 -0.134	  3.742	 -9.884	  0.491	  0.390	 -0.891	 32.300	 99.092	 -0.246
49253	  0.120	 -0.246	  0.213	  1.726	  2.503	 -10.769	  0.702	  0.540	 -0.604	 32.300	 99.085	  0.389
49303	  0.118	 -0.239	  0.222	  1.018	  2.962	 -10.945	  0.459	  0.424	 -0.427	 32.300	 99.085	  0.389
49353	  0.115	 -0.238	  0.224	  2.176	  2.902	 -8.848	 -0.384	  0.543	 -0.521	 32.300	 99.085	  0.389
49403	  0.116	 -0.237	  0.221	  0.966	  4.171	 -8.024	 -0.110	  0.382	 -0.480	 32.300	 99.069	  1.840
49453	  0.111	 -0.232	  0.223	  1.719	  4.423	 -8.591	  0.188	  0.313	 -0.192	 32.300	 99.085	  0.389
49503	  0.107	 -0.233	  0.233	  2.629	  4.067	 -9.455	  0.372	  0.469	 -0.147	 32.300	 99.085	  0.389
49553	  0.103	 -0.228	  0.230	  2.216	  3.438	 -8.930	  0.155	  0.310	 -0.340	 32.300	 99.073	  1.477
49603	  0.103	 -0.224	  0.235	  1.376	  3.082	 -9.163	 -0.060	  0.183	 -0.408	 32.300	 99.085	  0.389
49653	  0.103	 -0.222	  0.234	  1.115	  3.071	 -8.275	  0.083	  0.125	 -0.359	 32.300	 99.073	  1.477
49703	  0.107	 -0.218	  0.236	  0.667	  3.347	 -8.461	  0.185	 -0.038	 -0.322	 32.300	 99.085	  0.389
49753	  0.109	 -0.208	  0.241	  1.123	  3.499	 -9.196	  0.297	 -0.050	 -0.147	 32.300	 99.085	  0.389
49803	  0.109	 -0.211	  0.242	  1.235	  3.079	 -9.255	  0.242	  0.055	 -0.270	 32.300	 99.085	  0.389
49853	  0.111	 -0.203	  0.244	  0.845	  3.161	 -9.234	  0.047	 -0.056	 -0.249	 32.300	 99.073	  1.477
49903	  0.117	 -0.196	  0.243	  0.945	  3.018	 -8.611	 -0.017	 -0.265	 -0.357	 32.300	 99.089	  0.026
49953	  0.125	 -0.204	  0.244	  0.054	  3.305	 -9.257	 -0.173	 -0.390	 -0.356	 32.300	 99.085	  0.389
50003	  0.136	 -0.202	  0.236	  0.331	  3.380	 -9.065	 -0.091	 -0.328	 -0.305	 32.300	 99.073	  1.477
50053	  0.142	 -0.200	  0.238	 -0.303	  3.543	 -9.171	  0.148	 -0.128	 -0.316	 32.300	 99.085	  0.389
50103	  0.148	 -0.196	  0.239	 -0.253	  3.411	 -9.587	  0.127	 -0.041	 -0.136	 32.300	 99.080	  0.842
50153	  0.146	 -0.192	  0.233	  0.336	  3.361	 -9.545	  0.071	 -0.126	 -0.220	 32.300	 99.085	  0.389
50203	  0.154	 -0.187	  0.236	  0.483	  3.384	 -9.603	  0.004	 -0.213	 -0.387	 32.300	 99.085	  0.389
50253	  0.162	 -0.186	  0.229	  0.280	  3.439	 -9.441	 -0.117	 -0.399	 -0.507	 32.300	 99.096	 -0.608
50303	  0.168	 -0.182	  0.238	 -0.001	  3.015	 -10.117	  0.393	 -0.301	 -0.177	 32.300	 99.085	  0.389
50353	  0.170	 -0.172	  0.235	  1.055	  0.772	 -9.877	  0.270	  0.251	 -0.501	 32.300	 99.085	  0.389
50403	  0.176	 -0.163	  0.237	  0.214	  1.736	 -8.366	 -0.333	 -0.159	 -0.796	 32.300	 99.073	  1.477
50453	  0.188	 -0.171	  0.232	 -0.085	  2.175	 -8.301	 -0.377	 -0.247	 -0.729	 32.300	 99.085	  0.389
50503	  0.191	 -0.158	  0.232	 -0.309	  2.440	 -9.155	  0.481	  0.212	 -0.642	 32.300	 99.085	  0.389
50553	  0.190	 -0.140	  0.238	  1.223	  1.697	 -9.720	  0.727	  0.560	 -0.787	 32.300	 99.080	  0.842
50603	  0.188	 -0.124	  0.242	  1.118	  1.112	 -9.211	 -0.067	  0.405	 -1.186	 32.300	 99.096	 -0.608
50653	  0.189	 -0.122	  0.248	 -0.310	  1.485	 -9.264	 -0.494	  0.152	 -1.299	 32.300	 99.085	  0.389
50703	  0.192	 -0.110	  0.242	 -1.716	  1.869	 -10.811	 -0.049	  0.547	 -1.230	 32.300	 99.069	  1.840
50753	  0.185	 -0.103	  0.253	 -1.019	  2.223	 -10.095	  0.220	  0.870	 -0.984	 32.300	 99.096	 -0.608
50803	  0.178	 -0.089	  0.258	  0.035	  1.614	 -10.290	  0.118	  0.327	 -0.668	 32.300	 99.085	  0.389
50853	  0.174	 -0.080	  0.260	  1.808	  1.078	 -10.508	  0.027	  0.188	 -0.880	 32.300	 99.085	  0.389
50903	  0.172	 -0.076	  0.259	  0.735	  1.519	 -9.804	 -0.056	  0.051	 -0.843	 32.300	 99.085	  0.389
50953	  0.174	 -0.072	  0.259	  1.291	  1.277	 -9.045	 -0.185	 -0.125	 -1.061	 32.300	 99.085	  0.389
51003	  0.180	 -0.063	  0.260	  0.331	  2.084	 -8.257	 -0.357	 -0.143	 -1.110	 32.300	 99.085	  0.389
51053	  0.185	 -0.063	  0.254	 -0.005	  2.653	 -9.058	 -0.019	  0.076	 -0.888	 32.300	 99.085	  0.389
51103	  0.178	 -0.055	  0.259	 -0.388	  2.452	 -8.800	  0.024	  0.418	 -0.647	 32.300	 99.085	  0.389
51153	  0.170	 -0.050	  0.264	 -0.391	  2.992	 -8.978	  0.103	  0.398	 -0.390	 32.300	 99.085	  0.389
51203	  0.162	 -0.043	  0.262	 -0.377	  2.329	 -9.093	  0.162	  0.417	 -0.262	 32.300	 99.085	  0.389
51253	  0.156	 -0.034	  0.270	 -0.761	  2.099	 -8.986	  0.113	  0.201	 -0.054	 32.300	 99.085	  0.389
51303	  0.153	 -0.030	  0.272	 -0.576	  2.280	 -9.575	  0.146	  0.101	  0.166	 32.300	 99.073	  1.477
51353	  0.148	 -0.026	  0.271	 -0.539	  2.652	 -9.255	  0.207	  0.120	  0.148	 32.300	 99.085	  0.389
51403	  0.145	 -0.030	  0.271	 -0.031	  2.934	 -8.869	 -0.137	 -0.142	  0.295	 32.300	 99.069	  1.840
51453	  0.149	 -0.040	  0.274	 -0.422	  3.988	 -9.217	 -1.136	 -0.760	  0.390	 32.300	 99.085	  0.389
51503	  0.165	 -0.062	  0.268	  1.123	  4.383	 -8.581	 -1.166	 -0.784	 -0.019	 32.300	 99.085	  0.389
51553	  0.174	 -0.067	  0.262	 -2.288	  6.223	 -9.895	 -0.332	 -0.565	  0.043	 32.300	 99.096	 -0.608
51603	  0.179	 -0.074	  0.264	 -0.776	  5.554	 -10.556	 -0.064	 -0.397	  0.608	 32.300	 99.085	  0.389
51653	  0.179	 -0.074	  0.268	 -0.637	  4.445	 -10.268	  0.009	  0.007	  0.538	 32.300	 99.085	  0.389
51703	  0.175	 -0.076	  0.268	  0.443	  3.680	 -10.592	  0.187	 -0.259	  0.638	 32.300	 99.073	  1.477
51753	  0.179	 -0.075	  0.275	  0.462	  2.112	 -12.011	 -0.027	 -0.084	  0.341	 32.300	 99.096	 -0.608
51803	  0.171	 -0.082	  0.279	  0.625	  2.111	 -10.321	 -0.411	  0.628	  0.064	 32.300	 99.085	  0.389
51853	  0.154	 -0.086	  0.283	  1.603	  2.600	 -9.620	  0.316	  0.720	 -0.264	 32.300	 99.080	  0.842
51903	  0.143	 -0.077	  0.289	  1.827	  1.848	 -8.555	  0.269	  0.593	 -0.720	 32.300	 99.080	  0.842
51953	  0.134	 -0.067	  0.295	  1.641	  1.592	 -8.967	  0.272	  0.466	 -1.053	 32.300	 99.085	  0.389
52003	  0.129	 -0.056	  0.296	  0.738	  1.762	 -8.409	 -0.353	  0.169	 -1.284	 32.300	 99.080	  0.842
52053	  0.126	 -0.062	  0.303	  0.291	  2.583	 -8.719	 -0.684	  0.143	 -1.256	 32.300	 99.085	  0.389
52103	  0.125	 -0.074	  0.301	  0.253	  3.113	 -8.437	 -0.487	  0.419	 -1.131	 32.300	 99.085	  0.389
52153	  0.112	 -0.076	  0.303	 -0.157	  3.509	 -8.412	 -0.012	  0.608	 -0.911	 32.300	 99.080	  0.842
52203	  0.100	 -0.075	  0.308	  0.364	  2.573	 -9.244	  0.073	  0.761	 -0.727	 32.300	 99.073	  1.477
52253	  0.083	 -0.072	  0.313	  0.211	  2.584	 -8.938	 -0.342	  0.626	 -0.860	 32.300	 99.085	  0.389
52303	  0.077	 -0.085	  0.309	 -0.058	  2.675	 -9.008	 -0.638	  0.263	 -0.944	 32.300	 99.085	  0.389
52352	  0.075	 -0.089	  0.309	 -0.054	  4.011	 -9.394	 -0.299	  0.048	 -0.720	 32.300	 99.085	  0.389
52402	  0.074	 -0.094	  0.312	 -0.110	  3.503	 -10.785	  0.139	  0.133	 -0.466	 32.300	 99.073	  1.477
52452	  0.069	 -0.091	  0.314	  0.615	  3.915	 -10.336	  0.206	  0.346	 -0.027	 32.300	 99.085	  0.389
52502	  0.056	 -0.083	  0.319	  2.218	  2.682	 -9.913	  0.480	  0.613	 -0.192	 32.300	 99.096	 -0.608
52552	  0.045	 -0.075	  0.324	  1.562	  3.063	 -7.351	  0.055	  0.725	 -0.567	 32.300	 99.085	  0.389
52602	  0.038	 -0.073	  0.322	  1.010	  3.694	 -7.149	  0.001	  0.046	 -0.497	 32.300	 99.085	  0.389
52652	  0.041	 -0.074	  0.321	  0.181	  4.010	 -9.326	 -0.159	 -0.229	 -0.591	 32.300	 99.073	  1.477
52702	  0.045	 -0.079	  0.325	  0.344	  4.154	 -8.249	 -0.047	  0.073	 -0.361	 32.300	 99.073	  1.477
52752	  0.038	 -0.070	  0.326	  1.793	  4.654	 -9.296	  0.871	  0.443	 -0.120	 32.300	 99.069	  1.840
52802	  0.020	 -0.048	  0.328	  1.828	  2.958	 -8.738	  0.855	  0.794	 -0.247	 32.300	 99.085	  0.389
52852	  0.006	 -0.034	  0.327	  0.801	  3.019	 -7.858	  0.370	  0.481	 -0.400	 32.300	 99.080	  0.842
52902	  0.007	 -0.032	  0.326	  0.157	  3.112	 -8.506	 -0.092	 -0.274	 -0.379	 32.300	 99.096	 -0.608
52952	  0.016	 -0.033	  0.330	  0.137	  4.113	 -9.930	 -0.034	 -0.521	 -0.199	 32.300	 99.085	  0.389
53002	  0.020	 -0.027	  0.331	  0.875	  4.220	 -10.810	  0.329	 -0.182	 -0.048	 32.300	 99.073	  1.477
53052	  0.020	 -0.019	  0.334	  1.657	  4.161	 -10.077	  0.102	  0.100	 -0.004	 32.300	 99.085	  0.389
53102	  0.017	 -0.014	  0.340	  4.131	  4.381	 -9.307	  0.239	  0.563	 -0.086	 32.300	 99.096	 -0.608
53153	  0.001	 -0.024	  0.340	  0.797	  4.670	 -12.149	 -1.168	  0.803	  0.006	 32.300	 99.085	  0.389
53202	 -0.034	 -0.051	  0.335	  6.208	  3.717	 -7.177	 -1.771	  1.862	  0.474	 32.300	 99.085	  0.389
53252	 -0.070	 -0.085	  0.328	  2.023	  3.381	 -6.871	 -1.512	  0.757	  0.031	 32.300	 99.085	  0.389
53302	 -0.076	 -0.095	  0.328	  2.588	  4.686	 -8.688	  0.101	  0.166	  0.397	 32.300	 99.085	  0.389
53352	 -0.089	 -0.090	  0.335	  2.191	  2.267	 -9.330	  0.576	  0.421	 -0.680	 32.300	 99.080	  0.842
53402	 -0.086	 -0.081	  0.340	  4.657	  4.085	 -7.289	  0.418	 -0.055	 -0.532	 32.300	 99.085	  0.389
53452	 -0.071	 -0.072	  0.348	  1.949	  4.017	 -8.331	  0.420	 -1.153	 -0.071	 32.300	 99.085	  0.389
53503	 -0.046	 -0.051	  0.363	  2.225	  3.181	 -8.614	  1.199	 -1.041	 -0.005	 32.300	 99.096	 -0.608
53552	 -0.031	 -0.026	  0.373	  2.752	  2.174	 -9.317	  1.105	 -0.259	 -0.045	 32.300	 99.085	  0.389
53602	 -0.027	  0.000	  0.377	  2.318	  1.484	 -9.155	  1.067	 -0.201	 -0.526	 32.300	 99.073	  1.477
53652	 -0.021	  0.023	  0.380	  0.587	  1.200	 -9.395	  0.972	 -0.562	 -1.009	 32.300	 99.080	  0.842
53702	 -0.001	  0.049	  0.381	 -0.110	  0.887	 -11.860	  1.054	 -1.029	 -0.756	 32.300	 99.073	  1.477
53753	  0.029	  0.070	  0.386	 -0.572	  0.425	 -11.176	  0.469	 -1.230	 -0.361	 32.300	 99.085	  0.389
53802	  0.055	  0.074	  0.386	 -0.192	  0.970	 -10.878	 -0.342	 -1.160	 -0.349	 32.300	 99.085	  0.389
53853	  0.079	  0.065	  0.390	 -0.581	  1.276	 -9.918	 -0.290	 -0.525	 -0.348	 32.300	 99.085	  0.389
53903	  0.089	  0.071	  0.383	 -0.993	  1.383	 -8.800	  0.138	 -0.120	 -0.374	 32.300	 99.085	  0.389
53953	  0.096	  0.069	  0.382	 -0.813	  1.199	 -8.648	 -0.060	 -0.332	 -0.099	 32.300	 99.085	  0.389
54003	  0.114	  0.066	  0.379	 -1.228	  1.163	 -9.396	 -0.509	 -0.714	  0.017	 32.300	 99.096	 -0.608
54053	  0.133	  0.054	  0.375	 -2.125	  1.736	 -9.159	 -0.437	 -0.652	  0.483	 32.300	 99.096	 -0.608
54103	  0.156	  0.047	  0.377	 -2.269	  1.678	 -9.513	  0.189	 -0.427	  0.875	 32.300	 99.085	  0.389
54153	  0.166	  0.047	  0.369	 -2.470	  0.607	 -8.709	  0.384	 -0.323	  0.955	 32.300	 99.085	  0.389
54203	  0.184	  0.048	  0.359	 -2.844	  0.384	 -8.203	 -0.055	 -0.544	  1.191	 32.300	 99.085	  0.389
54253	  0.203	  0.036	  0.354	 -2.449	  1.472	 -9.016	 -0.246	 -0.543	  1.294	 32.300	 99.085	  0.389
54303	  0.215	  0.018	  0.347	 -2.655	  3.435	 -7.839	 -0.144	 -0.105	  1.703	 32.300	 99.085	  0.389
54353	  0.220	  0.007	  0.346	 -1.739	  3.606	 -9.255	  0.443	 -0.125	  1.962	 32.300	 99.085	  0.389
54403	  0.229	 -0.002	  0.339	 -1.376	  4.173	 -9.412	  0.471	 -0.113	  1.862	 32.300	 99.085	  0.389
54453	  0.231	 -0.010	  0.333	 -0.296	  3.609	 -9.617	  0.585	  0.077	  1.798	 32.300	 99.085	  0.389
54503	  0.233	 -0.016	  0.329	 -0.020	  2.948	 -9.256	  0.637	 -0.126	  1.823	 32.300	 99.085	  0.389
54553	  0.243	 -0.025	  0.321	  1.424	  1.492	 -9.987	  0.507	 -0.668	  1.527	 32.300	 99.073	  1.477
54603	  0.261	 -0.013	  0.315	  2.621	 -3.377	 -6.701	  1.619	 -1.200	  0.421	 32.300	 99.085	  0.389
54653	  0.269	  0.013	  0.306	 -1.761	  1.065	 -8.826	  1.590	  0.071	  0.908	 32.300	 99.080	  0.842
54703	  0.266	  0.035	  0.308	  1.584	  0.673	 -10.130	  2.204	  0.495	  1.078	 32.300	 99.080	  0.842
54753	  0.261	  0.064	  0.306	 -1.262	 -0.752	 -12.685	  0.691	  0.221	  0.681	 32.300	 99.085	  0.389
54803	  0.266	  0.045	  0.304	  0.446	 -0.458	 -10.581	 -0.423	 -0.251	  0.688	 32.300	 99.085	  0.389
54853	  0.270	  0.046	  0.301	 -1.703	 -0.603	 -8.694	  0.314	 -0.073	  0.098	 32.300	 99.096	 -0.608
54903	  0.269	  0.047	  0.301	 -2.181	 -0.272	 -12.699	  0.406	  0.450	  0.488	 32.300	 99.096	 -0.608
54953	  0.253	  0.036	  0.306	  0.050	 -0.278	 -10.624	 -0.698	  0.607	  0.659	 32.300	 99.089	  0.026
55003	  0.250	  0.014	  0.312	 -0.004	 -0.156	 -8.840	 -0.799	 -0.181	  0.271	 32.300	 99.085	  0.389
55053	  0.258	 -0.002	  0.306	 -0.909	  0.621	 -8.730	 -0.364	 -0.468	 -0.008	 32.300	 99.085	  0.389
55103	  0.263	 -0.005	  0.300	 -1.071	  0.411	 -9.208	  0.106	 -0.128	 -0.180	 32.300	 99.080	  0.842
55153	  0.263	  0.005	  0.301	 -0.669	  0.103	 -10.190	  0.322	  0.228	 -0.269	 32.300	 99.085	  0.389
55203	  0.256	  0.009	  0.303	 -1.488	  0.132	 -9.700	  0.017	  0.081	 -0.247	 32.300	 99.092	 -0.246
55253	  0.258	  0.008	  0.302	 -1.618	 -0.420	 -9.844	  0.018	 -0.230	 -0.032	 32.300	 99.085	  0.389
55303	  0.264	  0.011	  0.296	 -2.150	 -0.699	 -9.660	 -0.150	 -0.058	 -0.107	 32.300	 99.096	 -0.608
55353	  0.260	  0.006	  0.303	 -1.876	 -0.242	 -9.816	 -0.355	  0.088	  0.071	 32.300	 99.085	  0.389
55403	  0.257	 -0.001	  0.299	 -1.387	  0.219	 -9.251	 -0.272	  0.070	  0.098	 32.300	 99.085	  0.389
55453	  0.257	 -0.009	  0.301	 -0.773	  0.820	 -9.388	  0.009	 -0.215	  0.188	 32.300	 99.085	  0.389
55503	  0.265	 -0.008	  0.291	 -0.747	  1.154	 -9.372	  0.385	 -0.454	  0.243	 32.300	 99.073	  1.477
55553	  0.269	 -0.006	  0.284	 -0.994	  1.399	 -10.068	  0.288	 -0.282	  0.484	 32.300	 99.073	  1.477
55603	  0.269	 -0.013	  0.281	 -1.170	  1.064	 -9.775	 -0.097	  0.012	  0.600	 32.300	 99.073	  1.477
55653	  0.268	 -0.021	  0.288	 -1.369	  1.190	 -9.635	 -0.406	  0.289	  0.396	 32.300	 99.085	  0.389
55703	  0.263	 -0.038	  0.293	 -0.822	  1.630	 -9.303	 -0.136	  0.352	  0.342	 32.300	 99.073	  1.477
55753	  0.256	 -0.042	  0.293	 -0.691	  1.251	 -9.667	  0.092	  0.101	  0.203	 32.300	 99.080	  0.842
55803	  0.253	 -0.044	  0.294	 -0.925	  1.183	 -10.448	 -0.057	 -0.084	  0.165	 32.300	 99.080	  0.842
55853	  0.256	 -0.043	  0.294	 -0.788	  0.882	 -10.173	 -0.178	  0.047	 -0.108	 32.300	 99.085	  0.389
55903	  0.256	 -0.039	  0.291	 -1.139	  0.961	 -8.999	 -0.224	 -0.132	 -0.267	 32.300	 99.080	  0.842
55953	  0.260	 -0.046	  0.291	 -1.527	  1.145	 -8.985	  0.103	 -0.253	 -0.251	 32.300	 99.085	  0.389
56003	  0.266	 -0.039	  0.287	 -1.570	  0.914	 -9.766	  0.241	 -0.185	 -0.152	 32.300	 99.096	 -0.608
56053	  0.266	 -0.032	  0.281	 -1.495	  0.959	 -9.737	  0.090	  0.018	 -0.092	 32.300	 99.085	  0.389
56103	  0.266	 -0.035	  0.287	 -1.357	  1.128	 -9.445	  0.056	 -0.056	  0.044	 32.300	 99.073	  1.477
56153	  0.267	 -0.030	  0.287	 -1.647	  1.153	 -9.559	 -0.058	 -0.032	  0.105	 32.300	 99.096	 -0.608
56203	  0.269	 -0.030	  0.285	 -1.722	  1.355	 -10.077	 -0.143	  0.061	  0.321	 32.300	 99.085	  0.389
56253	  0.269	 -0.050	  0.283	 -1.583	  1.349	 -10.034	 -0.249	  0.244	  0.247	 32.300	 99.096	 -0.608
56303	  0.261	 -0.055	  0.294	 -1.311	  1.552	 -9.224	 -0.270	  0.140	  0.226	 32.300	 99.085	  0.389
56353	  0.263	 -0.064	  0.289	 -1.237	  1.883	 -8.929	 -0.022	 -0.012	  0.157	 32.300	 99.085	  0.389
56403	  0.265	 -0.061	  0.291	 -1.044	  1.624	 -8.759	  0.213	 -0.206	  0.147	 32.300	 99.073	  1.477
56453	  0.273	 -0.056	  0.287	 -1.360	  1.458	 -9.326	  0.506	 -0.361	  0.156	 32.300	 99.096	 -0.608
56503	  0.275	 -0.048	  0.285	 -1.085	  1.026	 -10.199	  0.357	 -0.241	  0.069	 32.300	 99.085	  0.389
56553	  0.282	 -0.042	  0.284	 -1.914	  1.285	 -10.511	  0.190	 -0.152	  0.162	 32.300	 99.089	  0.026
56603	  0.283	 -0.046	  0.272	 -1.920	  0.614	 -10.246	 -0.177	 -0.403	  0.300	 32.300	 99.096	 -0.608
56653	  0.294	 -0.054	  0.272	 -1.880	  0.592	 -9.699	 -0.344	 -0.443	  0.173	 32.300	 99.073	  1.477
56702	  0.299	 -0.062	  0.264	 -2.171	  0.670	 -9.211	 -0.283	 -0.279	  0.067	 32.300	 99.073	  1.477
56752	  0.304	 -0.062	  0.263	 -2.231	  1.049	 -9.337	 -0.063	 -0.099	  0.207	 32.300	 99.085	  0.389
56802	  0.307	 -0.071	  0.263	 -2.015	  0.945	 -9.162	 -0.094	 -0.118	  0.227	 32.300	 99.085	  0.389
56852	  0.311	 -0.072	  0.256	 -2.011	  1.018	 -9.006	  0.090	 -0.308	  0.121	 32.300	 99.085	  0.389
56902	  0.315	 -0.066	  0.249	 -2.199	  0.808	 -9.255	  0.339	 -0.267	 -0.047	 32.300	 99.080	  0.842
56952	  0.319	 -0.060	  0.251	 -2.267	  0.293	 -9.398	  0.297	 -0.235	 -0.175	 32.300	 99.096	 -0.608
57002	  0.326	 -0.056	  0.248	 -3.010	  0.586	 -9.495	  0.029	 -0.197	 -0.140	 32.300	 99.096	 -0.608
57052	  0.328	 -0.054	  0.240	 -3.804	  0.851	 -9.720	 -0.049	  0.016	  0.180	 32.300	 99.080	  0.842
57102	  0.327	 -0.060	  0.248	 -3.246	  0.451	 -10.080	 -0.098	  0.328	  0.299	 32.300	 99.096	 -0.608
57152	  0.320	 -0.068	  0.245	 -3.033	  0.337	 -9.287	 -0.354	  0.106	  0.218	 32.300	 99.085	  0.389
57202	  0.322	 -0.072	  0.250	 -2.999	  0.779	 -8.892	 -0.198	 -0.293	  0.125	 32.300	 99.085	  0.389
57252	  0.325	 -0.083	  0.243	 -2.662	  0.997	 -9.139	 -0.062	 -0.232	  0.106	 32.300	 99.085	  0.389
57302	  0.328	 -0.078	  0.239	 -2.448	  0.905	 -9.084	 -0.008	  0.057	 -0.092	 32.300	 99.073	  1.477
57352	  0.326	 -0.081	  0.242	 -2.970	  0.822	 -9.121	 -0.289	 -0.045	 -0.190	 32.300	 99.085	  0.389
57402	  0.329	 -0.081	  0.241	 -3.129	  1.216	 -8.974	 -0.554	 -0.116	 -0.184	 32.300	 99.085	  0.389
57453	  0.329	 -0.090	  0.238	 -3.415	  1.371	 -8.725	 -0.473	  0.047	 -0.221	 32.300	 99.085	  0.389
57502	  0.328	 -0.094	  0.239	 -3.515	  1.663	 -9.001	 -0.129	  0.217	 -0.156	 32.300	 99.085	  0.389
57552	  0.324	 -0.085	  0.245	 -3.335	  1.701	 -9.793	  0.333	  0.286	 -0.194	 32.300	 99.085	  0.389
57602	  0.324	 -0.083	  0.247	 -3.223	  0.779	 -10.172	  0.153	 -0.024	 -0.224	 32.300	 99.073	  1.477
57652	  0.323	 -0.067	  0.247	 -3.254	  0.750	 -9.681	 -0.450	 -0.341	 -0.353	 32.300	 99.085	  0.389
57702	  0.332	 -0.084	  0.239	 -4.162	  1.336	 -9.054	 -0.522	 -0.206	 -0.202	 32.300	 99.085	  0.389
57752	  0.334	 -0.086	  0.236	 -4.433	  1.624	 -9.239	 -0.411	  0.058	  0.137	 32.300	 99.073	  1.477
57802	  0.326	 -0.102	  0.239	 -2.890	  1.658	 -9.417	 -0.518	  0.332	  0.387	 32.300	 99.073	  1.477
57852	  0.320	 -0.111	  0.246	 -1.959	  1.777	 -8.444	 -0.321	  0.228	  0.059	 32.300	 99.080	  0.842
57902	  0.321	 -0.114	  0.246	 -2.086	  2.166	 -8.116	  0.024	 -0.179	 -0.054	 32.300	 99.080	  0.842
57952	  0.323	 -0.111	  0.245	 -2.318	  1.983	 -8.351	  0.481	 -0.241	 -0.080	 32.300	 99.085	  0.389
58002	  0.326	 -0.101	  0.238	 -2.370	  1.737	 -9.246	  0.552	 -0.283	 -0.060	 32.300	 99.085	  0.389
58052	  0.326	 -0.093	  0.239	 -2.449	  1.663	 -9.548	  0.213	 -0.065	 -0.089	 32.300	 99.085	  0.389
58102	  0.326	 -0.085	  0.241	 -2.588	  1.975	 -9.191	 -0.033	  0.208	 -0.010	 32.300	 99.085	  0.389
58152	  0.319	 -0.094	  0.247	 -2.462	  2.456	 -8.902	 -0.173	  0.468	  0.125	 32.300	 99.096	 -0.608
58202	  0.310	 -0.100	  0.249	 -2.588	  2.928	 -8.882	 -0.134	  0.513	  0.301	 32.300	 99.085	  0.389
58252	  0.301	 -0.110	  0.256	 -2.532	  2.838	 -9.279	 -0.022	  0.379	  0.475	 32.300	 99.073	  1.477
58302	  0.293	 -0.108	  0.260	 -2.245	  2.918	 -9.710	  0.061	  0.238	  0.435	 32.300	 99.085	  0.389
58352	  0.287	 -0.119	  0.264	 -2.235	  2.757	 -9.388	 -0.107	  0.057	  0.304	 32.300	 99.085	  0.389
58402	  0.288	 -0.125	  0.264	 -2.154	  2.846	 -9.021	 -0.133	 -0.034	  0.218	 32.300	 99.085	  0.389
58452	  0.286	 -0.129	  0.260	 -1.829	  2.951	 -9.426	 -0.060	  0.127	  0.246	 32.300	 99.096	 -0.608
58502	  0.281	 -0.128	  0.263	 -1.528	  2.752	 -9.652	 -0.114	  0.269	  0.278	 32.300	 99.085	  0.389
58552	  0.274	 -0.142	  0.261	 -1.386	  2.768	 -9.228	 -0.287	  0.153	  0.300	 32.300	 99.096	 -0.608
58602	  0.273	 -0.144	  0.263	 -1.476	  2.877	 -8.587	 -0.237	 -0.126	  0.206	 32.300	 99.080	  0.842
58652	  0.273	 -0.154	  0.260	 -1.952	  3.109	 -8.395	  0.027	 -0.255	  0.176	 32.300	 99.085	  0.389
58702	  0.276	 -0.152	  0.259	 -2.192	  3.020	 -8.572	  0.315	 -0.255	  0.217	 32.300	 99.089	  0.026
58752	  0.276	 -0.152	  0.250	 -2.128	  2.803	 -9.679	  0.242	 -0.090	  0.293	 32.300	 99.085	  0.389
58802	  0.274	 -0.154	  0.254	 -2.013	  2.864	 -9.188	 -0.025	  0.074	  0.378	 32.300	 99.073	  1.477
58852	  0.273	 -0.160	  0.251	 -1.840	  2.860	 -8.800	 -0.076	 -0.101	  0.393	 32.300	 99.085	  0.389
58902	  0.272	 -0.163	  0.250	 -1.976	  3.309	 -8.718	  0.145	 -0.151	  0.391	 32.300	 99.085	  0.389
58952	  0.273	 -0.155	  0.253	 -1.795	  2.945	 -8.581	  0.427	 -0.325	  0.397	 32.300	 99.085	  0.389
59003	  0.276	 -0.160	  0.249	 -2.000	  3.205	 -8.893	  0.455	 -0.417	  0.461	 32.300	 99.073	  1.477
59052	  0.281	 -0.156	  0.245	 -1.770	  2.958	 -9.033	  0.492	 -0.498	  0.443	 32.300	 99.096	 -0.608
59103	  0.286	 -0.154	  0.241	 -2.032	  3.051	 -8.995	  0.509	 -0.408	  0.421	 32.300	 99.085	  0.389
59152	  0.288	 -0.150	  0.237	 -1.934	  2.897	 -9.228	  0.657	 -0.433	  0.489	 32.300	 99.085	  0.389
59202	  0.294	 -0.143	  0.229	 -1.873	  2.758	 -9.627	  0.674	 -0.476	  0.539	 32.300	 99.096	 -0.608
59253	  0.299	 -0.141	  0.235	 -1.813	  2.107	 -9.360	  0.476	 -0.497	  0.573	 32.300	 99.085	  0.389
59302	  0.303	 -0.145	  0.227	 -2.414	  1.834	 -8.577	  0.146	 -0.521	  0.641	 32.300	 99.085	  0.389
59353	  0.303	 -0.147	  0.226	 -2.909	  2.146	 -9.387	  0.567	 -0.327	  0.652	 32.300	 99.085	  0.389
59402	  0.302	 -0.146	  0.223	 -3.364	  1.305	 -9.604	  0.764	  0.151	  0.865	 32.300	 99.085	  0.389
59453	  0.294	 -0.141	  0.232	 -2.704	  0.854	 -11.184	  1.222	  0.339	  0.967	 32.300	 99.085	  0.389
59503	  0.284	 -0.136	  0.239	 -2.220	  0.169	 -11.278	  0.412	  0.254	  0.649	 32.300	 99.073	  1.477
59553	  0.281	 -0.138	  0.244	 -2.690	  0.041	 -9.062	 -0.319	 -0.048	  0.073	 32.300	 99.085	  0.389
59603	  0.285	 -0.140	  0.242	 -3.231	  0.355	 -8.290	 -0.120	 -0.146	 -0.284	 32.300	 99.073	  1.477
59652	  0.287	 -0.134	  0.239	 -4.093	  0.466	 -9.095	  0.377	  0.031	 -0.088	 32.300	 99.080	  0.842
59703	  0.287	 -0.123	  0.247	 -2.945	 -0.903	 -9.883	  0.193	  0.126	 -0.216	 32.300	 99.085	  0.389
59753	  0.287	 -0.121	  0.242	 -2.857	 -0.695	 -9.244	 -0.356	  0.022	 -0.525	 32.300	 99.085	  0.389
59803	  0.291	 -0.119	  0.246	 -3.195	  0.037	 -8.785	 -0.320	 -0.028	 -0.568	 32.300	 99.096	 -0.608
59852	  0.294	 -0.116	  0.242	 -3.282	 -0.066	 -8.849	 -0.153	  0.115	 -0.402	 32.300	 99.085	  0.389
59903	  0.294	 -0.109	  0.243	 -3.103	 -0.305	 -9.006	 -0.157	  0.206	 -0.442	 32.300	 99.073	  1.477
59953	  0.291	 -0.103	  0.245	 -2.982	 -0.181	 -9.156	 -0.176	  0.215	 -0.582	 32.300	 99.100	 -0.971
60003	  0.290	 -0.094	  0.249	 -2.973	 -0.147	 -9.197	 -0.217	  0.111	 -0.586	 32.300	 99.085	  0.389
60053	  0.292	 -0.090	  0.245	 -3.031	  0.275	 -9.334	 -0.353	  0.106	 -0.417	 32.300	 99.073	  1.477
60103	  0.290	 -0.089	  0.246	 -3.381	  0.287	 -8.937	 -0.303	  0.181	 -0.286	 32.300	 99.085	  0.389
60153	  0.287	 -0.094	  0.249	 -3.463	  0.642	 -8.923	 -0.141	  0.120	 -0.264	 32.300	 99.096	 -0.608
60203	  0.288	 -0.091	  0.249	 -3.073	  0.475	 -10.149	 -0.153	  0.081	 -0.408	 32.300	 99.080	  0.842
60253	  0.287	 -0.075	  0.256	 -2.946	  0.655	 -9.577	 -0.138	  0.228	 -0.668	 32.300	 99.092	 -0.246
60303	  0.287	 -0.083	  0.255	 -3.463	  0.721	 -9.792	 -0.397	 -0.224	 -0.522	 32.300	 99.073	  1.477
60353	  0.295	 -0.081	  0.249	 -3.720	  1.544	 -9.864	 -0.464	 -0.308	 -0.447	 32.300	 99.085	  0.389
60403	  0.300	 -0.086	  0.244	 -3.810	  1.682	 -9.301	 -0.326	 -0.165	 -0.147	 32.300	 99.085	  0.389
60453	  0.299	 -0.083	  0.243	 -3.989	  1.613	 -8.505	 -0.051	  0.147	  0.023	 32.300	 99.096	 -0.608
60503	  0.295	 -0.088	  0.247	 -3.898	  1.005	 -7.813	  0.118	  0.283	  0.072	 32.300	 99.085	  0.389
60553	  0.288	 -0.084	  0.258	 -3.426	  1.043	 -7.751	 -0.079	  0.275	 -0.092	 32.300	 99.085	  0.389
60603	  0.287	 -0.081	  0.257	 -3.548	  1.487	 -8.508	 -0.129	 -0.126	 -0.278	 32.300	 99.073	  1.477
60653	  0.292	 -0.071	  0.259	 -3.797	  0.796	 -9.834	 -0.103	 -0.345	 -0.211	 32.300	 99.096	 -0.608
60703	  0.294	 -0.077	  0.253	 -4.174	  1.029	 -10.628	 -0.449	 -0.166	 -0.247	 32.300	 99.080	  0.842
60753	  0.292	 -0.082	  0.254	 -4.233	  1.300	 -10.902	 -0.870	  0.211	 -0.192	 32.300	 99.085	  0.389
60803	  0.289	 -0.093	  0.255	 -3.701	  2.163	 -9.708	 -0.746	  0.418	 -0.198	 32.300	 99.085	  0.389
60853	  0.283	 -0.096	  0.263	 -2.916	  2.396	 -9.847	  0.154	  0.021	 -0.091	 32.300	 99.092	 -0.246
60903	  0.283	 -0.086	  0.265	 -1.774	  1.827	 -11.114	  0.598	 -0.065	 -0.158	 32.300	 99.085	  0.389
60953	  0.285	 -0.077	  0.269	 -1.174	  0.858	 -10.296	 -0.282	 -0.020	 -0.594	 32.300	 99.096	 -0.608
61003	  0.289	 -0.084	  0.271	 -1.494	  2.196	 -8.318	 -1.063	 -0.109	 -0.765	 32.300	 99.096	 -0.608
61053	  0.291	 -0.090	  0.268	 -1.503	  3.153	 -7.800	 -0.966	 -0.097	 -0.499	 32.300	 99.073	  1.477
61103	  0.300	 -0.095	  0.266	 -1.477	  3.654	 -7.329	 -0.319	  0.038	 -0.390	 32.300	 99.085	  0.389
61153	  0.298	 -0.090	  0.268	 -1.616	  3.405	 -8.161	  0.175	 -0.066	 -0.369	 32.300	 99.085	  0.389
61203	  0.301	 -0.085	  0.268	 -1.806	  2.808	 -8.442	  0.197	 -0.171	 -0.427	 32.300	 99.073	  1.477
61253	  0.303	 -0.081	  0.274	 -2.448	  2.256	 -7.396	 -0.224	 -0.283	 -0.432	 32.300	 99.085	  0.389
61303	  0.310	 -0.080	  0.271	 -2.871	  2.533	 -7.661	 -0.321	 -0.198	 -0.256	 32.300	 99.085	  0.389
61353	  0.311	 -0.075	  0.278	 -2.919	  3.068	 -8.119	  0.131	  0.280	 -0.051	 32.300	 99.085	  0.389
61403	  0.302	 -0.066	  0.283	 -2.722	  2.396	 -8.355	  0.308	  0.439	 -0.003	 32.300	 99.085	  0.389
61453	  0.298	 -0.058	  0.296	 -2.643	  2.148	 -8.609	 -0.002	  0.286	 -0.071	 32.300	 99.089	  0.026
61503	  0.294	 -0.049	  0.301	 -3.288	  1.866	 -8.613	 -0.321	 -0.120	 -0.180	 32.300	 99.096	 -0.608
61553	  0.299	 -0.056	  0.300	 -4.105	  2.148	 -8.939	 -0.459	 -0.122	 -0.029	 32.300	 99.069	  1.840
61603	  0.300	 -0.054	  0.311	 -3.886	  3.267	 -8.731	 -0.027	  0.180	  0.159	 32.300	 99.073	  1.477
61653	  0.297	 -0.045	  0.319	 -3.312	  3.140	 -9.035	  0.351	  0.250	  0.193	 32.300	 99.080	  0.842
61703	  0.299	 -0.036	  0.321	 -2.888	  2.969	 -8.647	  0.370	 -0.100	  0.092	 32.300	 99.085	  0.389
61753	  0.310	 -0.015	  0.325	 -3.405	  2.393	 -7.925	  0.443	 -0.606	  0.090	 32.300	 99.085	  0.389
61803	  0.335	  0.005	  0.317	 -3.903	  2.102	 -11.488	  0.990	 -1.153	  0.434	 32.300	 99.096	 -0.608
61853	  0.362	  0.013	  0.311	 -2.435	  1.971	 -12.557	  0.402	 -0.182	  0.446	 32.300	 99.085	  0.389
61903	  0.361	  0.007	  0.325	 -2.722	  2.022	 -10.183	 -0.222	  0.457	 -0.041	 32.300	 99.085	  0.389
61953	  0.363	  0.001	  0.333	 -2.802	  1.415	 -7.970	 -0.819	  0.078	 -0.313	 32.300	 99.085	  0.389
62003	  0.365	 -0.014	  0.336	 -2.936	  2.447	 -7.800	 -0.590	  0.180	 -0.261	 32.300	 99.085	  0.389
62053	  0.365	 -0.024	  0.354	 -1.829	  2.001	 -8.050	 -0.239	  0.630	 -0.478	 32.300	 99.085	  0.389
62103	  0.355	 -0.010	  0.367	 -1.845	  1.667	 -7.491	 -0.083	  0.688	 -0.692	 32.300	 99.092	 -0.246
62153	  0.348	 -0.005	  0.381	 -1.479	  2.109	 -8.533	 -0.401	  0.446	 -0.877	 32.300	 99.085	  0.389
62203	  0.347	 -0.009	  0.382	 -1.769	  2.579	 -8.482	 -0.309	  0.299	 -0.897	 32.300	 99.085	  0.389
62253	  0.353	 -0.007	  0.402	 -1.637	  2.737	 -10.503	 -0.029	  0.225	 -1.186	 32.300	 99.096	 -0.608
62303	  0.354	  0.009	  0.415	 -1.726	  2.911	 -12.433	  0.179	  0.760	 -1.493	 32.300	 99.085	  0.389
62353	  0.337	  0.018	  0.427	 -1.630	  1.831	 -10.770	  0.013	  1.071	 -1.728	 32.300	 99.096	 -0.608
62403	  0.324	  0.013	  0.444	 -2.044	  0.702	 -7.669	 -0.474	  0.675	 -1.676	 32.300	 99.096	 -0.608
62453	  0.330	  0.006	  0.448	 -2.373	  0.906	 -6.741	 -0.511	  0.032	 -1.471	 32.300	 99.085	  0.389
62503	  0.361	 -0.006	  0.441	 -2.229	  0.935	 -7.272	  0.048	 -0.330	 -1.317	 32.300	 99.080	  0.842
62553	  0.391	 -0.003	  0.428	 -1.755	  0.377	 -9.459	  0.290	 -0.099	 -1.076	 32.300	 99.080	  0.842
62603	  0.416	  0.005	  0.415	 -2.506	  1.577	 -10.372	  0.354	  0.331	 -1.077	 32.300	 99.085	  0.389
62653	  0.423	 -0.003	  0.407	 -2.693	  0.731	 -13.116	 -0.279	  1.172	 -1.023	 32.300	 99.096	 -0.608
62703	  0.406	 -0.027	  0.409	 -1.859	  1.101	 -9.374	 -1.116	  0.903	 -0.932	 32.300	 99.096	 -0.608
62753	  0.418	 -0.056	  0.392	 -0.955	  2.742	 -8.050	 -0.436	 -0.780	 -0.733	 32.300	 99.096	 -0.608
62803	  0.466	 -0.053	  0.352	 -3.205	  0.069	 -18.835	  0.279	 -1.103	 -1.084	 32.300	 99.085	  0.389
62853	  0.498	 -0.036	  0.319	 -2.380	  0.870	 -8.996	  0.213	 -0.325	 -1.095	 32.300	 99.085	  0.389
62903	  0.522	 -0.027	  0.295	 -2.771	  0.650	 -10.062	 -0.017	  0.410	 -0.385	 32.300	 99.096	 -0.608
62953	  0.522	 -0.024	  0.299	 -2.206	 -0.188	 -8.729	  0.298	  1.548	 -0.606	 32.300	 99.080	  0.842
63002	  0.511	 -0.012	  0.309	 -1.839	 -0.180	 -9.364	  0.447	  1.168	 -0.476	 32.300	 99.085	  0.389
63052	  0.508	 -0.015	  0.295	 -1.097	 -0.124	 -8.566	  0.835	  0.368	  0.063	 32.300	 99.085	  0.389
63102	  0.511	 -0.008	  0.283	 -0.520	 -1.914	 -7.707	  1.931	  0.818	 -0.299	 32.300	 99.096	 -0.608
63152	  0.498	  0.018	  0.282	  0.204	 -5.633	 -11.694	 -0.518	  2.147	 -0.223	 32.300	 99.096	 -0.608
63202	  0.465	  0.021	  0.308	  0.799	 -1.007	 -8.155	  0.165	  0.286	  0.149	 32.300	 99.096	 -0.608
63252	  0.473	  0.014	  0.301	  1.050	 -1.353	 -9.577	 -0.262	 -0.880	 -0.039	 32.300	 99.085	  0.389
63302	  0.486	  0.018	  0.280	 -1.385	 -1.332	 -10.115	  0.237	 -0.465	 -0.234	 32.300	 99.096	 -0.608
63352	  0.489	  0.032	  0.281	 -0.448	 -1.694	 -9.106	  0.506	 -0.039	 -0.330	 32.300	 99.096	 -0.608
63402	  0.483	  0.046	  0.285	  2.624	 -1.462	 -10.894	 -0.318	  0.145	 -0.306	 32.300	 99.080	  0.842
63452	  0.477	  0.045	  0.295	  0.363	 -1.123	 -9.379	 -0.735	  0.145	 -0.134	 32.300	 99.085	  0.389
63502	  0.481	  0.032	  0.289	  0.347	 -1.355	 -10.514	 -0.660	 -0.088	  0.027	 32.300	 99.080	  0.842
63552	  0.488	  0.035	  0.296	 -0.467	 -0.668	 -10.508	 -0.218	 -0.287	 -0.285	 32.300	 99.080	  0.842
63602	  0.482	  0.036	  0.307	  0.671	 -0.506	 -10.454	 -1.575	  1.217	 -0.448	 32.300	 99.096	 -0.608
63652	  0.447	  0.026	  0.352	 -1.323	 -5.393	  1.898	  0.325	  0.467	 -0.078	 32.300	 99.085	  0.389
63702	  0.451	  0.040	  0.352	  0.384	  0.735	 -10.019	 -0.153	 -0.021	 -0.198	 32.300	 99.080	  0.842
63752	  0.447	  0.043	  0.345	  0.209	  0.550	 -9.598	  0.053	  0.000	  0.109	 32.300	 99.096	 -0.608
63802	  0.447	  0.036	  0.347	  0.644	  0.219	 -9.833	 -0.086	  0.227	  0.222	 32.300	 99.085	  0.389
63852	  0.445	  0.031	  0.355	  0.796	  0.483	 -9.960	 -0.134	  0.146	  0.185	 32.300	 99.096	 -0.608
63902	  0.441	  0.014	  0.360	  0.256	 -1.573	 -5.294	 -0.478	 -0.825	 -0.205	 32.300	 99.085	  0.389
63952	  0.444	  0.021	  0.357	  1.214	  0.349	 -10.002	 -0.029	 -0.162	 -0.028	 32.300	 99.096	 -0.608
64002	  0.444	  0.017	  0.359	  0.784	  0.554	 -9.568	 -0.019	  0.002	  0.005	 32.300	 99.092	 -0.246
64052	  0.442	  0.017	  0.360	  0.481	  0.542	 -10.148	 -0.012	 -0.021	  0.008	 32.300	 99.085	  0.389
64102	  0.443	  0.021	  0.360	  0.662	  0.591	 -9.628	 -0.000	  0.005	  0.002	 32.300	 99.096	 -0.608
64152	  0.441	  0.022	  0.359	  0.898	  0.524	 -10.147	 -0.008	 -0.034	  0.016	 32.300	 99.107	 -1.606
64202	  0.442	  0.020	  0.357	  0.611	  0.399	 -10.045	 -0.002	  0.006	 -0.013	 32.300	 99.085	  0.389
64252	  0.444	  0.021	  0.361	  0.732	  0.600	 -9.429	  0.002	  0.013	  0.002	 32.300	 99.092	 -0.246
64302	  0.441	  0.020	  0.358	  0.800	  0.514	 -9.767	 -0.007	 -0.005	 -0.001	 32.300	 99.096	 -0.608
64352	  0.444	  0.018	  0.359	  0.656	  0.541	 -9.769	 -0.002	  0.006	 -0.003	 32.300	 99.103	 -1.243
64402	  0.442	  0.016	  0.357	  0.736	  0.553	 -9.639	 -0.003	  0.005	  0.002	 32.300	 99.096	 -0.608
64452	  0.442	  0.022	  0.360	  0.745	  0.556	 -9.744	 -0.004	  0.000	  0.000	 32.300	 99.096	 -0.608
64502	  0.442	  0.022	  0.358	  0.714	  0.587	 -9.727	 -0.003	  0.003	  0.000	 32.300	 99.096	 -0.608
64552	  0.443	  0.019	  0.354	  0.728	  0.531	 -9.692	 -0.003	  0.000	  0.001	 32.300	 99.096	 -0.608
64602	  0.442	  0.018	  0.360	  0.701	  0.564	 -9.737	 -0.003	  0.003	 -0.000	 32.300	 99.096	 -0.608
64652	  0.444	  0.020	  0.356	  0.692	  0.587	 -9.762	 -0.004	  0.002	  0.001	 32.300	 99.085	  0.389
64702	  0.442	  0.016	  0.357	  0.702	  0.541	 -9.676	 -0.004	  0.003	 -0.000	 32.300	 99.092	 -0.246
64752	  0.444	  0.019	  0.356	  0.743	  0.548	 -9.778	 -0.004	  0.001	 -0.001	 32.300	 99.096	 -0.608
64802	  0.443	  0.020	  0.359	  0.781	  0.567	 -9.792	 -0.003	  0.003	 -0.001	 32.300	 99.096	 -0.608
64853	  0.444	  0.017	  0.360	  0.790	  0.479	 -9.802	 -0.005	  0.002	 -0.001	 32.300	 99.080	  0.842
64902	  0.443	  0.026	  0.361	  0.748	  0.492	 -9.787	 -0.006	 -0.002	  0.001	 32.300	 99.085	  0.389
64952	  0.441	  0.021	  0.358	  0.743	  0.584	 -9.604	 -0.003	  0.003	  0.003	 32.300	 99.085	  0.389
65002	  0.443	  0.019	  0.355	  0.714	  0.566	 -9.666	 -0.004	  0.002	  0.003	 32.300	 99.080	  0.842
65052	  0.444	  0.019	  0.360	  0.732	  0.537	 -9.731	 -0.005	 -0.000	  0.002	 32.300	 99.080	  0.842
65102	  0.442	  0.019	  0.359	  0.738	  0.542	 -9.720	 -0.004	  0.002	  0.000	 32.300	 99.085	  0.389
65152	  0.444	  0.018	  0.357	  0.706	  0.558	 -9.703	 -0.002	  0.001	 -0.000	 32.300	 99.096	 -0.608
65202	  0.443	  0.018	  0.353	  0.702	  0.556	 -9.736	 -0.003	  0.003	 -0.000	 32.300	 99.096	 -0.608
65252	  0.444	  0.017	  0.360	  0.692	  0.566	 -9.749	 -0.003	  0.001	  0.001	 32.300	 99.092	 -0.246
65303	  0.440	  0.020	  0.357	  0.697	  0.566	 -9.739	 -0.003	  0.002	  0.001	 32.300	 99.096	 -0.608
65352	  0.442	  0.015	  0.360	  0.716	  0.554	 -9.690	 -0.004	  0.001	  0.001	 32.300	 99.107	 -1.606
65403	  0.443	  0.023	  0.359	  0.695	  0.566	 -9.731	 -0.005	  0.002	  0.002	 32.300	 99.080	  0.842
65452	  0.441	  0.020	  0.358	  0.714	  0.577	 -9.699	 -0.004	  0.005	  0.001	 32.300	 99.080	  0.842
65502	  0.444	  0.017	  0.360	  0.701	  0.565	 -9.718	 -0.002	  0.002	  0.001	 32.300	 99.085	  0.389
65552	  0.442	  0.023	  0.357	  0.690	  0.546	 -9.713	 -0.003	  0.002	 -0.000	 32.300	 99.085	  0.389
65603	  0.442	  0.016	  0.356	  0.732	  0.563	 -9.656	 -0.002	  0.005	 -0.000	 32.300	 99.085	  0.389
65653	  0.442	  0.020	  0.360	  0.776	  0.539	 -9.738	 -0.004	 -0.001	  0.001	 32.300	 99.085	  0.389
65703	  0.440	  0.018	  0.355	  0.388	  0.837	 -9.418	 -0.001	  0.027	 -0.004	 32.300	 99.096	 -0.608
65753	  0.442	  0.015	  0.356	  0.212	  1.148	 -8.011	  0.022	  0.106	 -0.039	 32.300	 99.085	  0.389
65803	  0.443	  0.025	  0.362	  0.886	  0.609	 -9.280	  0.003	  0.010	  0.008	 32.300	 99.092	 -0.246
65853	  0.444	  0.024	  0.359	  0.768	  0.441	 -9.844	 -0.009	 -0.001	 -0.003	 32.300	 99.080	  0.842
65903	  0.445	  0.016	  0.361	  0.747	  0.532	 -9.810	 -0.004	 -0.001	  0.003	 32.300	 99.096	 -0.608
65953	  0.443	  0.017	  0.360	  0.727	  0.549	 -9.744	 -0.006	 -0.006	  0.003	 32.300	 99.080	  0.842
66003	  0.444	  0.019	  0.356	  0.699	  0.559	 -9.740	 -0.003	  0.001	 -0.001	 32.300	 99.085	  0.389
66053	  0.442	  0.019	  0.359	  0.719	  0.554	 -9.724	 -0.000	  0.005	 -0.001	 32.300	 99.096	 -0.608
66103	  0.444	  0.016	  0.359	  0.710	  0.536	 -9.755	 -0.003	  0.003	 -0.001	 32.300	 99.103	 -1.243
66153	  0.444	  0.016	  0.357	  0.737	  0.546	 -9.717	 -0.004	  0.003	  0.002	 32.300	 99.096	 -0.608
66203	  0.443	  0.021	  0.359	  0.720	  0.595	 -9.718	 -0.005	  0.001	  0.001	 32.300	 99.092	 -0.246
66253	  0.444	  0.019	  0.361	  0.694	  0.570	 -9.716	 -0.003	  0.002	  0.001	 32.300	 99.085	  0.389
66303	  0.440	  0.017	  0.358	  0.691	  0.557	 -9.685	 -0.002	  0.003	  0.001	 32.300	 99.092	 -0.246
66353	  0.441	  0.018	  0.358	  0.692	  0.578	 -9.707	 -0.003	  0.003	  0.001	 32.300	 99.080	  0.842
66403	  0.442	  0.021	  0.357	  0.620	  0.586	 -9.647	 -0.004	  0.008	 -0.003	 32.300	 99.092	 -0.246
66453	  0.442	  0.018	  0.359	  1.286	  0.716	 -10.095	 -0.021	  0.016	 -0.046	 32.300	 99.096	 -0.608
66503	  0.440	  0.024	  0.358	  1.109	  0.366	 -9.273	 -0.006	 -0.001	  0.002	 32.300	 99.085	  0.389
66553	  0.442	  0.026	  0.361	  0.745	  0.520	 -9.719	 -0.007	  0.008	  0.001	 32.300	 99.103	 -1.243
66603	  0.442	  0.022	  0.362	  0.699	  0.559	 -9.720	 -0.005	  0.004	  0.002	 32.300	 99.096	 -0.608
66653	  0.442	  0.023	  0.358	  0.707	  0.566	 -9.731	 -0.001	  0.004	  0.001	 32.300	 99.080	  0.842
66703	  0.442	  0.023	  0.361	 -0.018	  0.497	 -9.778	  0.208	  0.148	 -0.109	 32.300	 99.080	  0.842
66753	  0.433	  0.032	  0.365	  1.059	  0.916	 -10.542	  0.743	  0.833	  0.582	 32.300	 99.085	  0.389
66803	  0.425	  0.032	  0.372	  0.493	 -0.029	 -10.332	  0.235	  0.285	  0.336	 32.300	 99.080	  0.842
66853	  0.423	  0.030	  0.377	  1.011	 -0.106	 -9.550	  0.199	 -0.115	  0.096	 32.300	 99.107	 -1.606
66903	  0.436	  0.034	  0.369	  0.514	 -0.439	 -9.313	 -0.002	 -0.920	  0.171	 32.300	 99.092	 -0.246
66953	  0.456	  0.029	  0.348	  2.287	 -0.450	 -9.160	  0.262	 -0.775	  0.372	 32.300	 99.096	 -0.608
67003	  0.476	  0.021	  0.335	  0.386	  0.099	 -11.345	 -0.143	 -0.409	  0.387	 32.300	 99.096	 -0.608
67053	  0.486	  0.020	  0.336	 -0.200	 -0.684	 -10.308	  0.329	  0.125	  0.247	 32.300	 99.080	  0.842
67103	  0.484	  0.026	  0.338	 -1.120	 -0.759	 -9.707	  0.448	  0.101	 -0.136	 32.300	 99.096	 -0.608
67153	  0.487	  0.041	  0.331	 -0.042	 -0.587	 -9.523	  0.357	 -0.243	 -0.196	 32.300	 99.092	 -0.246
67203	  0.493	  0.051	  0.327	  0.017	 -0.225	 -9.560	  0.244	 -0.637	 -0.155	 32.300	 99.085	  0.389
67253	  0.507	  0.060	  0.312	 -0.642	 -1.880	 -9.762	 -0.028	 -0.318	 -0.117	 32.300	 99.096	 -0.608
67303	  0.514	  0.056	  0.312	 -0.306	 -0.249	 -9.580	  0.069	  0.064	  0.106	 32.300	 99.103	 -1.243
67353	  0.516	  0.060	  0.311	 -0.760	 -1.162	 -9.089	  0.335	 -0.170	 -0.005	 32.300	 99.096	 -0.608
67403	  0.527	  0.064	  0.301	 -0.447	 -1.094	 -9.794	  0.510	 -0.496	 -0.091	 32.300	 99.107	 -1.606
67453	  0.536	  0.083	  0.290	 -0.968	 -1.469	 -9.728	  0.582	 -0.453	 -0.156	 32.300	 99.092	 -0.246
67503	  0.538	  0.097	  0.280	 -1.084	 -1.801	 -9.289	  0.222	 -0.020	 -0.217	 32.300	 99.096	 -0.608
67553	  0.535	  0.102	  0.276	 -1.053	 -1.354	 -9.159	 -0.167	  0.013	 -0.064	 32.300	 99.096	 -0.608
67603	  0.530	  0.102	  0.281	 -0.841	 -1.933	 -10.375	 -0.185	  0.440	 -0.317	 32.300	 99.096	 -0.608
67653	  0.507	  0.105	  0.305	 -2.198	 -0.220	 -11.888	 -0.579	  0.780	  0.140	 32.300	 99.085	  0.389
67703	  0.473	  0.066	  0.330	 -0.430	 -1.248	 -11.742	 -1.301	  0.544	  1.017	 32.300	 99.096	 -0.608
67753	  0.434	  0.016	  0.355	  0.938	 -1.211	 -10.720	 -2.166	  0.409	  0.394	 32.300	 99.092	 -0.246
67803	  0.394	 -0.038	  0.375	 -0.337	  1.541	 -8.262	 -2.229	  0.128	  0.283	 32.300	 99.080	  0.842
67853	  0.370	 -0.097	  0.378	  0.528	  2.305	 -6.676	 -1.122	  0.082	  0.394	 32.300	 99.080	  0.842
67903	  0.361	 -0.107	  0.380	  0.121	  1.768	 -7.362	  0.452	  0.229	  0.165	 32.300	 99.080	  0.842
67953	  0.366	 -0.090	  0.379	  0.509	  0.836	 -8.307	  1.346	 -0.010	  0.250	 32.300	 99.085	  0.389
68003	  0.378	 -0.063	  0.370	  0.153	  0.234	 -9.537	  1.482	 -0.232	  0.163	 32.300	 99.085	  0.389
68053	  0.398	 -0.051	  0.356	  0.519	 -0.177	 -11.383	  0.784	  0.004	  0.376	 32.300	 99.080	  0.842
68103	  0.394	 -0.052	  0.348	  0.804	 -0.412	 -11.001	 -0.086	  0.536	  0.253	 32.300	 99.096	 -0.608
68153	  0.376	 -0.062	  0.363	  0.636	  0.321	 -10.512	 -0.536	  0.485	  0.195	 32.300	 99.085	  0.389
68203	  0.363	 -0.081	  0.369	  1.008	  0.241	 -9.422	 -0.577	  0.240	  0.192	 32.300	 99.096	 -0.608
68253	  0.355	 -0.089	  0.371	  0.935	  0.527	 -8.962	 -0.206	  0.104	  0.115	 32.300	 99.092	 -0.246
68303	  0.350	 -0.093	  0.370	  0.694	  0.606	 -8.975	  0.275	  0.120	  0.104	 32.300	 99.096	 -0.608
68353	  0.347	 -0.090	  0.366	  1.044	  0.340	 -9.217	  0.542	  0.210	  0.114	 32.300	 99.080	  0.842
68403	  0.348	 -0.082	  0.371	  1.221	 -0.117	 -9.699	  0.510	  0.139	  0.020	 32.300	 99.096	 -0.608
68453	  0.344	 -0.074	  0.364	  1.069	 -0.124	 -10.050	  0.091	 -0.061	  0.025	 32.300	 99.096	 -0.608
68503	  0.346	 -0.077	  0.355	  1.249	  0.013	 -10.341	 -0.180	  0.026	  0.071	 32.300	 99.092	 -0.246
68553	  0.340	 -0.083	  0.361	  1.305	  0.212	 -9.797	 -0.111	  0.128	  0.099	 32.300	 99.092	 -0.246
68603	  0.334	 -0.086	  0.361	  1.527	  0.021	 -9.397	 -0.061	 -0.013	  0.029	 32.300	 99.096	 -0.608
68653	  0.336	 -0.089	  0.360	  1.335	  0.102	 -9.779	 -0.030	 -0.216	 -0.003	 32.300	 99.096	 -0.608
68703	  0.331	 -0.088	  0.354	  1.029	  0.274	 -10.063	 -0.086	 -0.020	 -0.043	 32.300	 99.103	 -1.243
68753	  0.330	 -0.088	  0.359	  1.003	  0.279	 -9.633	 -0.200	  0.075	  0.001	 32.300	 99.096	 -0.608
68803	  0.326	 -0.092	  0.359	  0.960	  0.490	 -9.369	 -0.174	  0.005	  0.074	 32.300	 99.080	  0.842
68853	  0.319	 -0.091	  0.359	  1.277	  0.548	 -9.525	  0.089	  0.082	  0.066	 32.300	 99.080	  0.842
68903	  0.316	 -0.088	  0.360	  1.152	  0.437	 -9.639	  0.196	  0.007	  0.019	 32.300	 99.080	  0.842
68953	  0.319	 -0.081	  0.361	  1.378	  0.226	 -9.966	  0.038	 -0.030	 -0.012	 32.300	 99.103	 -1.243
69003	  0.318	 -0.082	  0.360	  1.241	  0.464	 -10.078	 -0.222	 -0.027	 -0.003	 32.300	 99.092	 -0.246
69053	  0.315	 -0.096	  0.366	  1.198	  0.600	 -9.419	 -0.253	  0.156	 -0.003	 32.300	 99.096	 -0.608
69103	  0.309	 -0.095	  0.364	  1.247	  0.607	 -9.187	  0.100	  0.257	  0.118	 32.300	 99.085	  0.389
69153	  0.303	 -0.093	  0.370	  1.347	  0.333	 -9.253	  0.329	  0.096	  0.111	 32.300	 99.092	 -0.246
69202	  0.311	 -0.091	  0.364	  1.412	  0.031	 -9.792	  0.282	 -0.225	  0.015	 32.300	 99.092	 -0.246
69252	  0.312	 -0.082	  0.361	  1.194	 -0.113	 -9.921	  0.087	 -0.174	 -0.148	 32.300	 99.092	 -0.246
69302	  0.318	 -0.084	  0.362	  0.765	  0.286	 -9.947	  0.044	 -0.014	 -0.015	 32.300	 99.096	 -0.608
69352	  0.315	 -0.085	  0.361	  0.901	  0.258	 -9.819	  0.072	  0.239	  0.153	 32.300	 99.085	  0.389
69402	  0.305	 -0.087	  0.363	  2.028	 -0.281	 -10.238	 -0.105	  0.337	  0.038	 32.300	 99.092	 -0.246
69452	  0.297	 -0.097	  0.367	  1.335	 -0.013	 -9.471	 -0.610	  0.033	 -0.135	 32.300	 99.080	  0.842
69502	  0.298	 -0.105	  0.361	  1.523	  0.481	 -9.711	 -0.698	 -0.241	 -0.085	 32.300	 99.085	  0.389
69552	  0.296	 -0.120	  0.355	  0.963	  0.998	 -8.642	 -0.333	 -0.201	  0.084	 32.300	 99.092	 -0.246
69602	  0.299	 -0.124	  0.348	  1.397	  0.817	 -8.934	  0.317	 -0.187	  0.177	 32.300	 99.085	  0.389
69652	  0.304	 -0.116	  0.345	  1.342	  0.435	 -9.637	  0.565	 -0.153	  0.101	 32.300	 99.092	 -0.246
69702	  0.310	 -0.111	  0.341	  1.343	  0.221	 -10.217	  0.384	 -0.023	  0.080	 32.300	 99.085	  0.389
69752	  0.310	 -0.106	  0.340	  1.344	  0.272	 -9.656	  0.240	 -0.051	  0.041	 32.300	 99.092	 -0.246
69802	  0.313	 -0.102	  0.338	  1.361	  0.043	 -9.854	  0.263	  0.114	  0.019	 32.300	 99.096	 -0.608
69852	  0.315	 -0.102	  0.348	  1.390	 -0.146	 -9.883	  0.008	  0.021	  0.005	 32.300	 99.080	  0.842
69902	  0.319	 -0.100	  0.348	  1.137	  0.004	 -9.883	 -0.076	 -0.028	 -0.083	 32.300	 99.092	 -0.246
69952	  0.319	 -0.094	  0.350	  0.841	  0.127	 -10.199	 -0.067	  0.115	  0.007	 32.300	 99.085	  0.389
70002	  0.317	 -0.098	  0.356	  0.870	  0.262	 -9.672	 -0.145	  0.110	  0.084	 32.300	 99.096	 -0.608
70052	  0.309	 -0.101	  0.355	  1.172	  0.206	 -9.649	 -0.135	  0.266	  0.027	 32.300	 99.080	  0.842
70102	  0.303	 -0.101	  0.361	  2.067	 -0.489	 -8.521	  0.019	 -0.076	 -0.103	 32.300	 99.096	 -0.608
70152	  0.313	 -0.096	  0.360	  1.552	 -0.275	 -8.974	  0.006	 -0.396	 -0.379	 32.300	 99.092	 -0.246
70202	  0.326	 -0.090	  0.358	  1.036	 -0.106	 -9.361	 -0.006	 -0.255	 -0.453	 32.300	 99.092	 -0.246
70252	  0.338	 -0.080	  0.354	  0.407	  0.345	 -9.705	  0.236	 -0.105	 -0.190	 32.300	 99.107	 -1.606
70302	  0.343	 -0.075	  0.352	  0.439	  0.280	 -9.957	  0.347	  0.019	  0.044	 32.300	 99.085	  0.389
70352	  0.347	 -0.072	  0.354	  0.865	 -0.226	 -10.169	  0.239	  0.112	  0.189	 32.300	 99.092	 -0.246
70402	  0.344	 -0.070	  0.352	  1.136	 -0.105	 -9.994	  0.021	  0.175	  0.254	 32.300	 99.080	  0.842
70452	  0.340	 -0.081	  0.356	  1.695	 -0.405	 -9.648	  0.001	  0.112	  0.110	 32.300	 99.092	 -0.246
70502	  0.343	 -0.072	  0.354	  1.519	 -0.649	 -9.698	  0.117	 -0.082	 -0.084	 32.300	 99.092	 -0.246
70552	  0.349	 -0.069	  0.358	  0.985	 -0.620	 -10.158	  0.131	 -0.227	 -0.161	 32.300	 99.103	 -1.243
70602	  0.353	 -0.060	  0.361	  1.301	 -0.817	 -10.922	  0.080	 -0.058	 -0.079	 32.300	 99.096	 -0.608
70652	  0.348	 -0.053	  0.369	  0.987	 -0.607	 -10.393	 -0.086	  0.034	 -0.040	 32.300	 99.092	 -0.246
70703	  0.335	 -0.047	  0.373	  1.042	 -0.477	 -10.189	 -0.046	 -0.100	  0.008	 32.300	 99.092	 -0.246
70752	  0.326	 -0.034	  0.391	  1.300	 -1.201	 -9.878	  0.212	 -0.004	 -0.056	 32.300	 99.096	 -0.608
70803	  0.311	 -0.017	  0.401	  0.768	 -1.274	 -9.804	  0.173	 -0.051	 -0.125	 32.300	 99.092	 -0.246
70852	  0.292	 -0.010	  0.405	  0.347	 -0.692	 -10.057	 -0.114	 -0.033	 -0.080	 32.300	 99.103	 -1.243
70902	  0.274	 -0.009	  0.421	  0.254	 -0.152	 -10.307	 -0.163	  0.155	  0.165	 32.300	 99.085	  0.389
70952	  0.240	 -0.010	  0.418	  0.896	 -0.102	 -10.241	 -0.043	  0.353	  0.253	 32.300	 99.092	 -0.246
71002	  0.207	 -0.009	  0.423	  1.411	  0.153	 -10.609	  0.453	  0.517	  0.408	 32.300	 99.085	  0.389
71052	  0.176	  0.006	  0.424	  1.961	 -0.363	 -10.848	  0.526	  0.302	  0.118	 32.300	 99.080	  0.842
71102	  0.149	  0.015	  0.415	  1.941	  0.217	 -10.897	  0.182	 -0.208	 -0.054	 32.300	 99.092	 -0.246
71152	  0.133	  0.013	  0.410	  2.328	 -0.122	 -11.065	 -0.520	 -0.377	 -0.230	 32.300	 99.096	 -0.608
71202	  0.118	 -0.017	  0.403	  2.257	  0.725	 -10.707	 -0.855	 -0.348	 -0.427	 32.300	 99.092	 -0.246
71253	  0.098	 -0.045	  0.399	  2.494	  0.782	 -9.464	 -1.012	 -0.154	 -0.750	 32.300	 99.096	 -0.608
71302	  0.080	 -0.078	  0.397	  1.662	  0.911	 -8.123	 -0.642	 -0.155	 -0.967	 32.300	 99.080	  0.842
71353	  0.079	 -0.101	  0.403	  1.252	  1.263	 -7.932	 -0.617	 -0.381	 -1.132	 32.300	 99.092	 -0.246
71403	  0.089	 -0.130	  0.413	  0.330	  1.672	 -7.727	 -0.597	 -0.531	 -1.241	 32.300	 99.103	 -1.243
71453	  0.116	 -0.160	  0.421	 -0.611	  1.797	 -7.470	 -0.888	 -0.436	 -1.068	 32.300	 99.085	  0.389
71503	  0.133	 -0.178	  0.426	 -0.647	  2.595	 -8.247	 -0.065	  0.098	 -0.945	 32.300	 99.092	 -0.246
71553	  0.158	 -0.184	  0.447	 -0.048	  0.799	 -7.374	 -0.025	 -0.000	 -0.968	 32.300	 99.096	 -0.608
71603	  0.194	 -0.181	  0.468	 -1.398	  2.416	 -7.756	  0.116	 -0.526	 -0.603	 32.300	 99.085	  0.389
71653	  0.234	 -0.174	  0.486	 -0.039	 -0.046	 -8.410	  0.296	 -0.529	 -0.691	 32.300	 99.085	  0.389
71703	  0.272	 -0.155	  0.510	 -0.065	  0.409	 -8.727	  0.103	  0.050	 -0.616	 32.300	 99.080	  0.842
71753	  0.289	 -0.127	  0.534	 -2.611	  0.920	 -8.658	  0.156	  0.292	 -1.026	 32.300	 99.073	  1.477
71803	  0.312	 -0.115	  0.559	 -1.041	  0.022	 -9.109	 -0.003	 -0.198	  0.039	 32.300	 99.080	  0.842
71853	  0.326	 -0.101	  0.575	 -0.085	  0.188	 -10.198	  0.387	  0.183	  0.106	 32.300	 99.096	 -0.608
71903	  0.334	 -0.063	  0.600	 -0.698	  0.631	 -10.492	  0.901	  0.313	  0.090	 32.300	 99.080	  0.842
71953	  0.344	 -0.022	  0.615	 -0.977	 -0.898	 -9.825	  0.944	 -0.342	  0.013	 32.300	 99.096	 -0.608
72003	  0.383	  0.010	  0.599	 -1.194	 -0.984	 -11.144	  0.648	 -1.041	  0.340	 32.300	 99.080	  0.842
72053	  0.408	  0.034	  0.599	 -0.393	 -1.577	 -11.946	  0.568	  0.405	  0.011	 32.300	 99.092	 -0.246
72103	  0.393	  0.046	  0.601	 -1.606	  0.170	 -9.788	  0.090	  0.219	  0.283	 32.300	 99.085	  0.389
72153	  0.409	  0.036	  0.591	 -1.343	 -0.462	 -9.239	  0.029	 -0.654	  0.719	 32.300	 99.085	  0.389
72203	  0.436	  0.033	  0.573	 -1.990	 -1.202	 -8.703	  0.514	 -0.682	  0.882	 32.300	 99.092	 -0.246
72253	  0.467	  0.036	  0.542	 -2.370	 -1.540	 -9.996	  0.858	 -0.712	  1.434	 32.300	 99.092	 -0.246
72303	  0.475	  0.019	  0.522	 -1.022	 -1.708	 -10.543	  0.736	  0.049	  1.638	 32.300	 99.096	 -0.608
72353	  0.477	 -0.004	  0.505	 -1.070	 -1.185	 -10.148	  0.171	 -0.198	  1.208	 32.300	 99.092	 -0.246
72403	  0.479	 -0.016	  0.493	 -1.909	 -0.556	 -9.119	 -0.039	 -0.272	  0.804	 32.300	 99.080	  0.842
72453	  0.486	 -0.038	  0.471	 -2.547	 -0.390	 -8.936	  0.199	 -0.321	  0.620	 32.300	 99.080	  0.842
72503	  0.488	 -0.040	  0.456	 -1.873	 -0.554	 -9.625	  0.413	 -0.134	  0.594	 32.300	 99.080	  0.842
72553	  0.482	 -0.045	  0.450	 -2.063	 -1.318	 -9.531	  0.482	  0.365	  0.338	 32.300	 99.092	 -0.246
72603	  0.476	 -0.034	  0.453	 -1.830	 -1.299	 -9.453	  0.366	  0.133	  0.382	 32.300	 99.092	 -0.246
72653	  0.476	 -0.042	  0.447	 -2.255	 -1.365	 -9.707	  0.209	  0.094	  0.339	 32.300	 99.080	  0.842
72703	  0.471	 -0.036	  0.445	 -2.523	 -1.558	 -10.476	  0.587	  0.653	  0.152	 32.300	 99.092	 -0.246
72753	  0.461	 -0.027	  0.452	 -2.834	 -1.101	 -10.670	  0.143	  0.241	  0.323	 32.300	 99.080	  0.842
72803	  0.449	 -0.043	  0.453	 -1.677	 -1.412	 -10.266	 -0.481	  0.214	  0.290	 32.300	 99.080	  0.842
72853	  0.439	 -0.065	  0.464	 -1.767	 -1.214	 -9.156	 -0.484	  0.114	  0.205	 32.300	 99.096	 -0.608
72903	  0.437	 -0.078	  0.460	 -1.421	 -1.104	 -8.917	 -0.254	 -0.080	  0.053	 32.300	 99.092	 -0.246
72953	  0.437	 -0.080	  0.460	 -1.723	 -0.970	 -9.107	  0.051	 -0.086	 -0.009	 32.300	 99.092	 -0.246
73003	  0.442	 -0.078	  0.461	 -2.583	 -0.994	 -9.258	  0.184	 -0.115	  0.003	 32.300	 99.092	 -0.246
73053	  0.444	 -0.072	  0.453	 -2.175	 -1.346	 -9.815	  0.197	 -0.062	  0.148	 32.300	 99.096	 -0.608
73103	  0.440	 -0.068	  0.454	 -1.894	 -1.241	 -9.932	 -0.001	  0.343	  0.127	 32.300	 99.080	  0.842
73153	  0.425	 -0.076	  0.464	 -1.640	 -1.192	 -9.987	 -0.163	  0.743	 -0.028	 32.300	 99.092	 -0.246
73203	  0.402	 -0.083	  0.476	 -1.587	 -0.773	 -9.707	 -0.284	  0.407	 -0.014	 32.300	 99.096	 -0.608
73253	  0.396	 -0.090	  0.475	 -1.003	 -0.789	 -8.763	 -0.190	 -0.057	  0.051	 32.300	 99.092	 -0.246
73303	  0.400	 -0.089	  0.473	 -1.518	 -0.861	 -9.198	  0.294	 -0.138	  0.050	 32.300	 99.092	 -0.246
73353	  0.407	 -0.082	  0.472	 -1.495	 -1.176	 -10.119	  0.229	 -0.119	  0.063	 32.300	 99.096	 -0.608
73403	  0.409	 -0.079	  0.471	 -1.458	 -1.132	 -9.826	  0.024	  0.027	 -0.001	 32.300	 99.092	 -0.246
73453	  0.410	 -0.076	  0.471	 -1.320	 -1.197	 -9.415	  0.034	  0.056	 -0.081	 32.300	 99.103	 -1.243
73503	  0.410	 -0.074	  0.473	 -1.653	 -1.015	 -9.359	  0.144	 -0.077	 -0.031	 32.300	 99.080	  0.842
73553	  0.417	 -0.059	  0.474	 -1.255	 -1.105	 -9.783	  0.138	 -0.072	 -0.016	 32.300	 99.092	 -0.246
73603	  0.420	 -0.061	  0.473	 -1.666	 -1.147	 -9.681	  0.095	 -0.027	 -0.098	 32.300	 99.080	  0.842
73653	  0.420	 -0.060	  0.475	 -1.630	 -1.155	 -9.556	  0.013	 -0.109	 -0.140	 32.300	 99.080	  0.842
73703	  0.429	 -0.055	  0.473	 -1.664	 -1.204	 -9.510	  0.033	 -0.063	 -0.126	 32.300	 99.092	 -0.246
73753	  0.432	 -0.054	  0.476	 -1.864	 -1.500	 -9.463	  0.073	 -0.127	 -0.124	 32.300	 99.092	 -0.246
73803	  0.439	 -0.047	  0.479	 -2.490	 -1.317	 -10.369	  0.031	 -0.016	  0.105	 32.300	 99.096	 -0.608
73853	  0.426	 -0.052	  0.480	 -2.398	 -1.536	 -10.755	 -0.455	  0.409	  0.420	 32.300	 99.092	 -0.246
73903	  0.403	 -0.093	  0.488	 -1.408	 -1.263	 -9.884	 -0.977	  0.410	  0.440	 32.300	 99.092	 -0.246
73953	  0.387	 -0.126	  0.490	 -0.935	 -0.369	 -8.907	 -0.860	 -0.039	  0.289	 32.300	 99.092	 -0.246
74003	  0.386	 -0.151	  0.485	 -0.600	  0.011	 -9.088	 -0.456	 -0.220	  0.087	 32.300	 99.092	 -0.246
74053	  0.389	 -0.158	  0.487	 -0.574	  0.295	 -9.200	 -0.171	 -0.107	 -0.119	 32.300	 99.092	 -0.246
74103	  0.393	 -0.158	  0.481	 -0.544	 -0.090	 -8.916	  0.157	  0.065	 -0.406	 32.300	 99.080	  0.842
74153	  0.412	 -0.136	  0.496	 -1.560	  0.083	 -8.690	  0.376	 -0.380	 -0.536	 32.300	 99.092	 -0.246
74203	  0.437	 -0.101	  0.495	 -2.377	 -0.617	 -9.308	  0.650	 -0.503	 -0.768	 32.300	 99.092	 -0.246
74253	  0.464	 -0.072	  0.490	 -2.775	 -1.188	 -9.488	  0.492	 -0.344	 -0.481	 32.300	 99.092	 -0.246
74303	  0.474	 -0.052	  0.490	 -2.923	 -1.121	 -10.110	  0.379	  0.073	 -0.150	 32.300	 99.092	 -0.246
74353	  0.474	 -0.040	  0.491	 -1.602	 -1.441	 -9.507	  0.042	  0.103	 -0.288	 32.300	 99.092	 -0.246
74403	  0.480	 -0.026	  0.487	 -1.939	 -0.678	 -9.087	  0.103	 -0.372	 -0.321	 32.300	 99.096	 -0.608
74453	  0.507	 -0.016	  0.476	 -1.119	 -1.550	 -8.997	  0.222	 -0.681	 -0.347	 32.300	 99.080	  0.842
74503	  0.530	  0.014	  0.464	 -2.674	 -1.048	 -9.418	  0.608	 -0.445	 -0.718	 32.300	 99.080	  0.842
74553	  0.551	  0.051	  0.461	 -4.179	 -1.851	 -9.263	  0.591	 -0.403	 -0.375	 32.300	 99.092	 -0.246
74603	  0.567	  0.053	  0.446	 -2.263	 -2.276	 -10.900	  0.164	 -0.257	  0.899	 32.300	 99.096	 -0.608
74653	  0.564	  0.039	  0.452	 -1.883	 -3.039	 -9.979	 -0.291	  0.509	 -0.092	 32.300	 99.080	  0.842
74703	  0.560	  0.033	  0.471	 -2.667	 -2.633	 -8.136	 -0.577	 -0.336	 -0.301	 32.300	 99.092	 -0.246
74753	  0.582	  0.022	  0.460	 -5.208	 -1.155	 -8.059	 -0.480	 -0.938	  0.116	 32.300	 99.096	 -0.608
74803	  0.600	  0.010	  0.437	 -3.288	 -1.594	 -8.519	 -0.229	 -0.670	  0.143	 32.300	 99.092	 -0.246
74853	  0.617	  0.004	  0.416	 -3.834	 -1.203	 -8.803	 -0.081	 -0.745	  0.077	 32.300	 99.092	 -0.246
74903	  0.636	 -0.007	  0.387	 -4.476	 -1.345	 -9.612	 -0.243	 -0.897	  0.261	 32.300	 99.096	 -0.608
74953	  0.648	 -0.022	  0.373	 -4.261	 -1.341	 -9.886	 -0.621	 -0.290	  0.196	 32.300	 99.080	  0.842
75003	  0.643	 -0.043	  0.378	 -4.624	 -0.836	 -8.171	 -0.641	  0.470	  0.073	 32.300	 99.080	  0.842
75053	  0.632	 -0.058	  0.393	 -3.843	 -0.730	 -7.965	 -0.098	  0.373	  0.073	 32.300	 99.080	  0.842
75103	  0.626	 -0.061	  0.397	 -4.468	 -0.536	 -8.592	  0.053	  0.056	  0.034	 32.300	 99.092	 -0.246
75153	  0.619	 -0.066	  0.392	 -4.975	 -0.732	 -9.752	 -0.207	  0.185	  0.391	 32.300	 99.092	 -0.246
75203	  0.604	 -0.089	  0.404	 -3.499	 -0.178	 -8.906	 -0.494	  0.297	  0.339	 32.300	 99.103	 -1.243
75253	  0.597	 -0.088	  0.407	 -3.281	  0.531	 -7.920	  0.059	 -0.094	 -0.171	 32.300	 99.092	 -0.246
75303	  0.598	 -0.081	  0.399	 -2.715	  0.056	 -9.106	  0.454	  0.128	 -0.152	 32.300	 99.092	 -0.246
75353	  0.598	 -0.064	  0.413	 -3.292	 -0.301	 -9.414	  0.356	  0.450	 -0.450	 32.300	 99.080	  0.842
75403	  0.601	 -0.032	  0.420	 -3.793	 -0.483	 -9.215	  0.156	 -0.160	 -0.375	 32.300	 99.085	  0.389
75453	  0.614	 -0.026	  0.415	 -3.918	 -0.882	 -8.923	 -0.111	 -0.137	 -0.509	 32.300	 99.080	  0.842
75503	  0.623	 -0.013	  0.410	 -4.205	 -0.907	 -8.241	  0.042	 -0.363	 -0.377	 32.300	 99.096	 -0.608
75553	  0.641	  0.009	  0.401	 -4.002	 -0.907	 -8.303	  0.136	 -0.486	 -0.410	 32.300	 99.080	  0.842
75603	  0.657	  0.023	  0.384	 -4.096	 -1.445	 -8.514	  0.291	 -0.442	 -0.364	 32.300	 99.092	 -0.246
75653	  0.671	  0.053	  0.371	 -3.952	 -1.343	 -8.827	  0.471	 -0.251	 -0.331	 32.300	 99.080	  0.842
75703	  0.687	  0.063	  0.356	 -4.086	 -1.685	 -9.053	  0.251	 -0.297	 -0.261	 32.300	 99.096	 -0.608
75753	  0.698	  0.078	  0.350	 -4.295	 -1.724	 -8.403	  0.008	 -0.097	 -0.279	 32.300	 99.103	 -1.243
75803	  0.712	  0.092	  0.341	 -4.277	 -1.666	 -7.864	  0.139	 -0.072	 -0.262	 32.300	 99.092	 -0.246
75853	  0.727	  0.109	  0.336	 -4.124	 -1.384	 -8.338	  0.145	 -0.098	 -0.436	 32.300	 99.092	 -0.246
75903	  0.751	  0.120	  0.323	 -4.537	 -2.286	 -9.538	 -0.296	 -0.707	 -0.115	 32.300	 99.092	 -0.246
75953	  0.763	  0.117	  0.325	 -2.143	 -3.735	 -9.806	 -0.436	  0.668	 -0.356	 32.300	 99.092	 -0.246
76003	  0.763	  0.138	  0.369	 -5.951	 -2.708	 -7.145	 -0.253	  0.384	 -0.700	 32.300	 99.092	 -0.246
76053	  0.780	  0.155	  0.382	 -3.070	 -2.135	 -7.025	 -0.071	 -0.193	 -0.509	 32.300	 99.092	 -0.246
76103	  0.798	  0.203	  0.380	 -6.932	 -0.359	 -8.306	  0.793	 -0.390	 -0.850	 32.300	 99.092	 -0.246
76153	  0.824	  0.240	  0.361	 -3.531	 -3.126	 -9.298	  0.567	  0.266	 -0.271	 32.300	 99.092	 -0.246
76203	  0.828	  0.266	  0.377	 -5.068	 -2.924	 -8.048	  0.381	  0.471	 -0.496	 32.300	 99.080	  0.842
76253	  0.842	  0.298	  0.377	 -3.925	 -3.295	 -7.905	  0.252	 -0.049	 -0.430	 32.300	 99.092	 -0.246
76303	  0.857	  0.329	  0.369	 -3.729	 -3.843	 -8.334	  0.320	  0.052	 -0.711	 32.300	 99.092	 -0.246
76353	  0.863	  0.371	  0.356	 -4.326	 -2.829	 -9.089	  0.263	  0.115	 -0.587	 32.300	 99.092	 -0.246
76403	  0.859	  0.393	  0.365	 -2.670	 -4.476	 -8.530	  0.172	  0.880	 -0.302	 32.300	 99.092	 -0.246
76453	  0.848	  0.421	  0.395	 -2.737	 -4.031	 -7.619	  0.230	  0.823	 -0.700	 32.300	 99.103	 -1.243
76504	  0.851	  0.468	  0.415	 -1.850	 -4.251	 -8.164	  0.479	  0.363	 -0.786	 32.300	 99.103	 -1.243
76553	  0.865	  0.537	  0.410	 -2.319	 -4.716	 -8.574	  0.149	 -0.111	 -1.019	 32.300	 99.092	 -0.246
76603	  0.885	  0.581	  0.419	 -2.558	 -4.674	 -8.848	 -0.494	 -0.057	 -0.756	 32.300	 99.096	 -0.608
76654	  0.900	  0.620	  0.446	 -2.822	 -4.082	 -8.853	 -0.606	 -0.058	 -0.654	 32.300	 99.092	 -0.246
76703	  0.905	  0.637	  0.473	 -1.759	 -4.025	 -9.299	 -0.637	  0.324	 -0.562	 32.300	 99.092	 -0.246
76753	  0.886	  0.641	  0.524	 -1.602	 -4.570	 -8.574	 -0.510	  0.747	 -0.352	 32.300	 99.096	 -0.608
76803	  0.858	  0.650	  0.551	 -0.862	 -3.537	 -9.239	 -0.023	  0.805	 -0.361	 32.300	 99.092	 -0.246
76854	  0.834	  0.662	  0.581	 -0.611	 -4.272	 -9.030	 -0.382	  0.305	 -0.459	 32.300	 99.092	 -0.246
76903	  0.811	  0.668	  0.603	 -0.580	 -3.214	 -9.507	 -0.517	  0.272	 -0.434	 32.300	 99.092	 -0.246
76953	  0.789	  0.674	  0.618	 -0.716	 -2.888	 -8.795	 -0.338	  0.076	 -0.396	 32.300	 99.092	 -0.246
77004	  0.794	  0.658	  0.619	  0.216	 -3.151	 -9.094	 -0.520	 -0.335	 -0.237	 32.300	 99.092	 -0.246
77053	  0.797	  0.653	  0.631	 -0.434	 -2.947	 -9.768	 -0.665	 -0.158	 -0.372	 32.300	 99.092	 -0.246
77104	  0.789	  0.652	  0.667	 -0.203	 -2.259	 -9.689	 -0.479	  0.620	 -0.318	 32.300	 99.092	 -0.246
77153	  0.750	  0.674	  0.720	 -0.182	 -2.759	 -8.985	  0.429	  1.547	 -0.302	 32.300	 99.103	 -1.243
77203	  0.718	  0.681	  0.757	  0.511	 -3.201	 -10.312	 -0.341	  0.217	 -0.053	 32.300	 99.092	 -0.246
77254	  0.698	  0.662	  0.777	  0.825	 -2.948	 -8.290	 -0.202	  0.626	 -0.071	 32.300	 99.092	 -0.246
77304	  0.687	  0.671	  0.782	  0.679	 -2.789	 -10.925	 -0.131	 -0.048	 -0.049	 32.300	 99.080	  0.842
77354	  0.688	  0.664	  0.791	  1.031	 -2.429	 -9.215	 -0.380	 -0.209	 -0.099	 32.300	 99.103	 -1.243
77404	  0.693	  0.654	  0.792	  1.093	 -2.250	 -9.616	 -0.215	 -0.075	 -0.250	 32.300	 99.092	 -0.246
77454	  0.686	  0.654	  0.795	  0.727	 -1.963	 -9.158	 -0.167	 -0.105	 -0.151	 32.300	 99.092	 -0.246
77504	  0.689	  0.657	  0.802	  0.907	 -2.357	 -9.857	 -0.266	  0.020	 -0.116	 32.300	 99.103	 -1.243
77554	  0.684	  0.646	  0.808	  0.866	 -1.454	 -9.769	 -0.137	  0.041	 -0.105	 32.300	 99.107	 -1.606
77604	  0.679	  0.650	  0.810	  0.612	 -1.823	 -9.511	  0.232	  0.083	  0.026	 32.300	 99.103	 -1.243
77654	  0.670	  0.657	  0.805	  1.315	 -2.817	 -10.255	  0.429	  0.401	  0.219	 32.300	 99.092	 -0.246
77704	  0.655	  0.659	  0.804	  1.338	 -2.897	 -9.202	  0.094	  0.081	  0.239	 32.300	 99.092	 -0.246
77754	  0.630	  0.656	  0.800	  1.059	 -0.881	 -9.504	  0.028	  0.197	  0.153	 32.300	 99.103	 -1.243
77804	  0.623	  0.623	  0.799	  0.770	 -2.626	 -9.191	 -0.087	  0.229	  0.492	 32.300	 99.092	 -0.246
77854	  0.616	  0.611	  0.801	  1.144	 -2.080	 -8.586	  0.039	  0.261	  0.492	 32.300	 99.092	 -0.246
77903	  0.623	  0.590	  0.797	  1.995	 -3.043	 -8.764	  0.017	  0.029	  0.343	 32.300	 99.092	 -0.246
77954	  0.636	  0.593	  0.796	  1.376	 -2.420	 -8.761	 -0.101	 -0.278	  0.005	 32.300	 99.092	 -0.246
78003	  0.680	  0.595	  0.783	  1.055	 -1.702	 -7.856	  0.142	 -0.591	  0.224	 32.300	 99.092	 -0.246
78054	  0.736	  0.626	  0.755	  1.252	 -3.796	 -13.242	  0.165	 -0.004	  0.077	 32.300	 99.107	 -1.606
78103	  0.730	  0.606	  0.771	  0.816	 -2.807	 -9.655	 -0.834	  0.337	 -0.177	 32.300	 99.085	  0.389
78153	  0.701	  0.589	  0.806	  0.856	 -0.449	 -8.758	 -0.058	  0.730	 -0.079	 32.300	 99.080	  0.842
78203	  0.702	  0.581	  0.811	  2.054	 -2.903	 -10.664	 -0.517	 -0.297	  0.018	 32.300	 99.107	 -1.606
78253	  0.700	  0.569	  0.820	  1.213	 -1.259	 -9.079	 -0.052	  0.108	 -0.106	 32.300	 99.092	 -0.246
78303	  0.698	  0.580	  0.826	  1.448	 -1.916	 -9.368	 -0.015	  0.037	 -0.062	 32.300	 99.103	 -1.243
78353	  0.696	  0.576	  0.819	  1.216	 -1.718	 -9.530	  0.043	  0.024	 -0.035	 32.300	 99.092	 -0.246
78403	  0.695	  0.581	  0.815	  1.146	 -1.876	 -9.340	 -0.042	 -0.100	 -0.054	 32.300	 99.096	 -0.608
78453	  0.715	  0.583	  0.809	  1.456	 -2.004	 -8.802	  0.107	 -0.309	 -0.184	 32.300	 99.092	 -0.246
78503	  0.721	  0.602	  0.804	  1.166	 -1.379	 -10.472	 -0.176	 -0.026	 -0.173	 32.300	 99.092	 -0.246
78553	  0.719	  0.594	  0.807	  1.210	 -1.758	 -9.652	 -0.282	 -0.079	 -0.083	 32.300	 99.096	 -0.608
78603	  0.722	  0.581	  0.817	  0.913	 -1.427	 -9.554	 -0.251	 -0.035	 -0.041	 32.300	 99.092	 -0.246
78653	  0.719	  0.577	  0.821	  0.892	 -1.545	 -9.528	 -0.135	  0.031	 -0.033	 32.300	 99.103	 -1.243
78703	  0.701	  0.591	  0.830	  0.791	 -0.657	 -8.158	  0.856	  1.164	  0.227	 32.300	 99.103	 -1.243
78753	  0.687	  0.617	  0.829	  3.751	 -2.418	 -10.914	 -0.011	 -0.054	  0.318	 32.300	 99.092	 -0.246
78803	  0.692	  0.618	  0.827	  1.802	 -1.667	 -9.452	 -0.076	 -0.025	 -0.049	 32.300	 99.096	 -0.608
78853	  0.690	  0.614	  0.833	  1.562	 -2.045	 -9.232	 -0.071	 -0.027	 -0.012	 32.300	 99.092	 -0.246
78903	  0.693	  0.614	  0.833	  1.755	 -2.015	 -9.333	 -0.086	 -0.033	 -0.018	 32.300	 99.103	 -1.243
78953	  0.692	  0.608	  0.835	  1.698	 -1.782	 -9.434	 -0.145	 -0.044	 -0.032	 32.300	 99.096	 -0.608
79003	  0.692	  0.609	  0.839	  1.618	 -1.727	 -9.405	 -0.114	 -0.025	 -0.024	 32.300	 99.092	 -0.246
79053	  0.693	  0.604	  0.839	  1.780	 -1.904	 -9.468	  0.021	  0.026	  0.024	 32.300	 99.092	 -0.246
79103	  0.696	  0.608	  0.838	  1.643	 -1.991	 -9.282	  0.050	  0.046	  0.048	 32.300	 99.103	 -1.243
79153	  0.696	  0.602	  0.837	  1.805	 -1.934	 -9.432	  0.028	  0.023	  0.039	 32.300	 99.092	 -0.246
79203	  0.694	  0.609	  0.836	  1.809	 -1.439	 -9.641	 -0.031	  0.107	  0.032	 32.300	 99.092	 -0.246
79253	  0.693	  0.588	  0.849	  0.066	 -1.075	 -10.646	 -0.264	  0.162	  0.085	 32.300	 99.092	 -0.246
