Time	 MagX	 MagY	 MagZ	 AccelX	 AccelY	 AccelZ	 Yaw	 Pitch	 Roll	 Temperature	 Pressure	 Altitude
28334	  0.665	  0.051	  0.497	  0.076	  0.019	 -9.778	 -0.003	  0.003	  0.000	 30.500	 99.100	 -99999.000
28383	  0.667	  0.056	  0.495	  0.071	 -0.003	 -9.755	 -0.002	  0.002	  0.001	 30.500	 99.089	 -99999.000
28433	  0.664	  0.056	  0.497	  0.157	 -0.008	 -9.689	 -0.002	  0.003	  0.002	 30.500	 99.084	 -99999.000
28483	  0.663	  0.062	  0.498	  0.099	  0.015	 -9.759	 -0.003	  0.003	  0.002	 30.500	 99.089	 -99999.000
28533	  0.666	  0.054	  0.496	  0.102	  0.015	 -9.792	 -0.004	  0.003	  0.000	 30.500	 99.084	 -99999.000
28583	  0.674	  0.047	  0.494	  0.092	  0.003	 -9.711	 -0.003	  0.002	  0.001	 30.500	 99.089	 -99999.000
28633	  0.671	  0.055	  0.494	  0.094	  0.011	 -9.776	 -0.004	  0.003	 -0.000	 30.500	 99.089	 -99999.000
28683	  0.666	  0.051	  0.496	  0.060	 -0.008	 -9.793	 -0.004	  0.002	  0.001	 30.500	 99.100	 -99999.000
28733	  0.668	  0.058	  0.498	  0.090	 -0.005	 -9.752	 -0.003	  0.002	  0.000	 30.500	 99.077	 -99999.000
28783	  0.666	  0.052	  0.494	 -0.023	  0.039	 -9.873	 -0.007	  0.000	  0.001	 30.500	 99.089	 -99999.000
28833	  0.671	  0.051	  0.500	  0.089	  0.031	 -9.760	 -0.002	  0.001	  0.001	 30.500	 99.089	 -99999.000
28883	  0.672	  0.043	  0.497	  0.070	 -0.004	 -9.767	 -0.003	  0.002	  0.001	 30.500	 99.089	 -99999.000
28933	  0.672	  0.050	  0.498	  0.096	 -0.009	 -9.737	 -0.004	  0.001	  0.000	 30.500	 99.100	 -99999.000
28983	  0.669	  0.047	  0.498	  0.087	 -0.011	 -9.762	 -0.004	  0.003	  0.000	 30.500	 99.100	 -99999.000
29033	  0.670	  0.056	  0.499	  0.059	 -0.015	 -9.753	 -0.004	  0.002	  0.000	 30.500	 99.100	 -99999.000
29083	  0.666	  0.051	  0.497	  0.200	 -0.142	 -9.973	 -0.009	 -0.003	 -0.001	 30.500	 99.100	 -99999.000
29133	  0.666	  0.055	  0.496	  0.095	  0.019	 -9.677	 -0.003	  0.002	  0.001	 30.500	 99.089	 -99999.000
29183	  0.668	  0.055	  0.501	  0.094	  0.006	 -9.772	 -0.003	  0.002	  0.000	 30.500	 99.089	 -99999.000
29233	  0.671	  0.045	  0.495	  0.085	 -0.001	 -9.754	 -0.003	  0.003	  0.001	 30.500	 99.089	 -99999.000
29283	  0.674	  0.047	  0.495	  0.091	 -0.004	 -9.777	 -0.003	  0.002	 -0.001	 30.500	 99.089	 -99999.000
29333	  0.670	  0.049	  0.498	  0.106	 -0.006	 -9.741	 -0.004	  0.002	 -0.000	 30.500	 99.089	 -99999.000
29383	  0.667	  0.051	  0.496	  0.094	 -0.010	 -9.788	 -0.003	  0.002	  0.000	 30.500	 99.089	 -99999.000
29433	  0.665	  0.058	  0.498	  0.083	  0.012	 -9.786	 -0.004	  0.001	 -0.001	 30.500	 99.089	 -99999.000
29483	  0.661	  0.061	  0.503	  0.094	 -0.045	 -9.747	 -0.002	  0.002	  0.001	 30.500	 99.077	 -99999.000
29533	  0.665	  0.062	  0.503	  0.093	 -0.037	 -9.760	 -0.004	  0.002	  0.002	 30.500	 99.077	 -99999.000
29583	  0.664	  0.054	  0.494	  0.083	 -0.019	 -9.777	 -0.004	  0.002	 -0.000	 30.500	 99.077	 -99999.000
29633	  0.666	  0.054	  0.492	  0.097	  0.018	 -9.750	 -0.004	  0.002	  0.001	 30.500	 99.089	 -99999.000
29683	  0.672	  0.049	  0.498	  0.079	 -0.001	 -9.808	 -0.003	  0.003	  0.001	 30.500	 99.077	 -99999.000
29733	  0.674	  0.044	  0.498	  0.107	 -0.011	 -9.761	 -0.003	  0.004	  0.000	 30.500	 99.089	 -99999.000
29783	  0.669	  0.050	  0.499	  0.110	  0.014	 -9.745	 -0.004	  0.003	  0.001	 30.500	 99.077	 -99999.000
29833	  0.667	  0.051	  0.500	  0.077	  0.009	 -9.728	 -0.003	  0.002	  0.000	 30.500	 99.089	 -99999.000
29883	  0.664	  0.054	  0.497	  0.098	 -0.010	 -9.743	 -0.004	  0.001	  0.001	 30.500	 99.089	 -99999.000
29932	  0.666	  0.055	  0.500	  0.087	  0.014	 -9.737	 -0.003	  0.002	  0.000	 30.500	 99.100	 -99999.000
29982	  0.668	  0.049	  0.496	  0.079	  0.019	 -9.801	 -0.003	  0.003	  0.001	 30.500	 99.089	 -99999.000
30032	  0.674	  0.053	  0.495	  0.087	  0.014	 -9.781	 -0.004	  0.001	  0.001	 30.500	 99.100	 -99999.000
30082	  0.672	  0.050	  0.495	  0.083	 -0.014	 -9.749	 -0.002	  0.001	  0.001	 30.500	 99.077	 -99999.000
30132	  0.678	  0.048	  0.500	  0.065	  0.001	 -9.740	 -0.004	  0.002	  0.000	 30.500	 99.100	 -99999.000
30182	  0.675	  0.052	  0.499	  0.059	 -0.023	 -9.751	 -0.003	  0.004	  0.000	 30.500	 99.089	 -99999.000
30232	  0.675	  0.054	  0.501	  0.055	  0.063	 -9.914	 -0.003	  0.004	  0.002	 30.500	 99.089	 -99999.000
30282	  0.676	  0.057	  0.499	  0.086	  0.005	 -9.735	 -0.003	  0.002	  0.000	 30.500	 99.100	 -99999.000
30332	  0.673	  0.056	  0.495	  0.066	  0.007	 -9.753	 -0.003	  0.002	  0.001	 30.500	 99.077	 -99999.000
30382	  0.677	  0.053	  0.498	  0.060	  0.014	 -9.748	 -0.004	  0.002	 -0.000	 30.500	 99.089	 -99999.000
30432	  0.677	  0.046	  0.500	  0.097	 -0.003	 -9.800	 -0.003	  0.002	 -0.000	 30.500	 99.089	 -99999.000
30482	  0.680	  0.049	  0.498	  0.080	  0.002	 -9.740	 -0.004	  0.002	 -0.000	 30.500	 99.066	 -99999.000
30532	  0.678	  0.048	  0.498	  0.078	  0.023	 -9.773	 -0.004	  0.001	  0.001	 30.600	 99.082	 -99999.000
30582	  0.676	  0.049	  0.500	  0.101	 -0.049	 -9.838	 -0.002	  0.006	  0.001	 30.500	 99.077	 -99999.000
30632	  0.681	  0.051	  0.496	  0.073	  0.031	 -9.745	 -0.003	  0.003	  0.000	 30.500	 99.089	 -99999.000
30682	  0.676	  0.050	  0.496	  0.081	  0.009	 -9.740	 -0.003	  0.003	  0.001	 30.500	 99.077	 -99999.000
30732	  0.676	  0.047	  0.498	  0.108	 -0.008	 -9.736	 -0.005	  0.002	 -0.000	 30.500	 99.089	 -99999.000
30782	  0.678	  0.050	  0.499	  0.085	  0.021	 -9.804	 -0.003	  0.004	  0.000	 30.600	 99.077	 -99999.000
30832	  0.682	  0.048	  0.503	  0.100	 -0.038	 -9.754	 -0.003	  0.002	 -0.000	 30.500	 99.089	 -99999.000
30882	  0.680	  0.051	  0.503	  0.083	  0.024	 -9.743	 -0.003	  0.001	  0.001	 30.500	 99.077	 -99999.000
30932	  0.680	  0.049	  0.499	  0.043	  0.043	 -9.583	  0.001	  0.007	 -0.000	 30.500	 99.089	 -99999.000
30982	  0.678	  0.055	  0.497	  0.111	 -0.005	 -9.715	 -0.004	  0.002	  0.000	 30.500	 99.077	 -99999.000
31032	  0.675	  0.047	  0.496	  0.068	  0.014	 -9.754	 -0.003	  0.002	 -0.000	 30.500	 99.089	 -99999.000
31082	  0.673	  0.051	  0.497	  0.064	  0.015	 -9.779	 -0.003	  0.002	  0.001	 30.500	 99.089	 -99999.000
31132	  0.675	  0.045	  0.500	  0.086	  0.019	 -9.756	 -0.003	  0.003	  0.001	 30.600	 99.093	 -99999.000
31182	  0.675	  0.048	  0.498	  0.097	 -0.015	 -9.739	 -0.003	  0.001	  0.001	 30.500	 99.089	 -99999.000
31232	  0.673	  0.046	  0.498	  0.073	  0.009	 -9.780	 -0.004	  0.003	 -0.000	 30.500	 99.077	 -99999.000
31282	  0.673	  0.046	  0.494	  0.213	 -0.089	 -9.663	 -0.003	  0.001	  0.001	 30.500	 99.100	 -99999.000
31332	  0.674	  0.053	  0.499	  0.083	  0.037	 -9.796	 -0.004	  0.001	  0.001	 30.500	 99.089	 -99999.000
31382	  0.675	  0.052	  0.491	  0.077	  0.004	 -9.777	 -0.004	  0.003	  0.000	 30.500	 99.077	 -99999.000
31432	  0.671	  0.052	  0.495	  0.084	  0.000	 -9.775	 -0.003	  0.002	  0.001	 30.500	 99.089	 -99999.000
31482	  0.675	  0.052	  0.500	  0.102	  0.007	 -9.747	 -0.004	  0.002	  0.002	 30.600	 99.089	 -99999.000
31532	  0.675	  0.047	  0.502	  0.072	 -0.002	 -9.788	 -0.004	  0.001	  0.001	 30.500	 99.089	 -99999.000
31582	  0.679	  0.048	  0.506	  0.118	 -0.017	 -9.760	 -0.003	  0.002	  0.001	 30.600	 99.089	 -99999.000
31632	  0.679	  0.046	  0.505	  0.090	  0.014	 -9.738	 -0.004	  0.002	 -0.000	 30.500	 99.077	 -99999.000
31682	  0.680	  0.046	  0.496	  0.082	  0.004	 -9.755	 -0.004	  0.003	  0.000	 30.500	 99.093	 -99999.000
31732	  0.676	  0.048	  0.497	  0.079	  0.015	 -9.832	 -0.006	 -0.001	  0.000	 30.600	 99.082	 -99999.000
31782	  0.675	  0.046	  0.495	  0.057	 -0.001	 -9.769	 -0.003	  0.002	  0.001	 30.500	 99.093	 -99999.000
31832	  0.673	  0.045	  0.490	  0.083	  0.013	 -9.777	 -0.003	  0.002	  0.001	 30.500	 99.089	 -99999.000
31882	  0.674	  0.043	  0.500	  0.060	  0.006	 -9.775	 -0.004	  0.001	  0.000	 30.500	 99.093	 -99999.000
31932	  0.677	  0.040	  0.496	  0.089	  0.004	 -9.756	 -0.004	  0.002	 -0.000	 30.600	 99.093	 -99999.000
31982	  0.683	  0.037	  0.498	  0.097	  0.028	 -9.740	 -0.003	  0.003	 -0.000	 30.500	 99.077	 -99999.000
32032	  0.685	  0.034	  0.497	  0.105	 -0.010	 -9.751	 -0.003	  0.002	  0.000	 30.500	 99.100	 -99999.000
32082	  0.679	  0.035	  0.494	  0.012	  0.026	 -9.763	 -0.003	  0.003	  0.001	 30.500	 99.077	 -99999.000
32132	  0.675	  0.036	  0.493	  0.060	  0.024	 -9.754	 -0.004	  0.003	  0.001	 30.600	 99.093	 -99999.000
32182	  0.678	  0.047	  0.495	  0.085	 -0.007	 -9.749	 -0.002	  0.002	  0.001	 30.500	 99.089	 -99999.000
32232	  0.678	  0.038	  0.500	  0.068	 -0.001	 -9.772	 -0.003	  0.002	 -0.001	 30.600	 99.093	 -99999.000
32282	  0.679	  0.042	  0.502	  0.099	 -0.004	 -9.758	 -0.003	  0.003	  0.000	 30.600	 99.093	 -99999.000
32332	  0.683	  0.038	  0.506	  0.084	 -0.000	 -9.767	 -0.003	  0.003	  0.000	 30.500	 99.089	 -99999.000
32382	  0.683	  0.037	  0.500	  0.076	  0.008	 -9.759	 -0.003	  0.002	  0.001	 30.600	 99.077	 -99999.000
32432	  0.681	  0.041	  0.499	  0.057	  0.000	 -9.796	 -0.003	  0.002	  0.001	 30.500	 99.077	 -99999.000
32482	  0.682	  0.048	  0.495	  0.090	  0.036	 -9.733	 -0.004	  0.002	  0.001	 30.500	 99.093	 -99999.000
32532	  0.680	  0.046	  0.500	  0.091	 -0.015	 -9.768	 -0.004	  0.004	  0.001	 30.500	 99.089	 -99999.000
32582	  0.680	  0.045	  0.505	  0.062	  0.009	 -9.783	 -0.003	  0.002	 -0.000	 30.500	 99.082	 -99999.000
32632	  0.680	  0.044	  0.502	  0.082	 -0.029	 -9.768	 -0.003	  0.001	  0.000	 30.600	 99.093	 -99999.000
32682	  0.683	  0.045	  0.501	  0.085	  0.016	 -9.763	 -0.004	  0.002	  0.000	 30.600	 99.089	 -99999.000
32732	  0.679	  0.041	  0.495	  0.095	  0.016	 -9.753	 -0.004	  0.002	  0.000	 30.600	 99.082	 -99999.000
32782	  0.681	  0.046	  0.498	  0.097	  0.017	 -9.655	 -0.001	  0.004	 -0.001	 30.500	 99.089	 -99999.000
32832	  0.682	  0.046	  0.498	  0.083	  0.016	 -9.797	 -0.004	  0.003	  0.000	 30.500	 99.089	 -99999.000
32883	  0.683	  0.043	  0.497	  0.108	 -0.003	 -9.742	 -0.003	  0.002	  0.001	 30.600	 99.077	 -99999.000
32932	  0.676	  0.050	  0.496	  0.083	 -0.018	 -9.807	 -0.003	  0.002	  0.001	 30.500	 99.089	 -99999.000
32983	  0.674	  0.052	  0.497	  0.081	 -0.016	 -9.736	 -0.003	  0.003	 -0.000	 30.600	 99.100	 -99999.000
33032	  0.670	  0.053	  0.494	  0.090	 -0.003	 -9.796	 -0.003	  0.001	  0.000	 30.600	 99.093	 -99999.000
33082	  0.672	  0.058	  0.498	  0.058	 -0.005	 -9.783	 -0.005	  0.003	 -0.001	 30.500	 99.077	 -99999.000
33132	  0.671	  0.056	  0.498	  0.090	 -0.015	 -9.752	 -0.003	  0.003	  0.000	 30.500	 99.089	 -99999.000
33182	  0.674	  0.059	  0.503	  0.127	 -0.008	 -9.668	 -0.004	  0.000	 -0.001	 30.600	 99.089	 -99999.000
33232	  0.673	  0.057	  0.501	  0.081	  0.030	 -9.729	 -0.003	  0.001	  0.000	 30.500	 99.077	 -99999.000
33282	  0.675	  0.058	  0.499	  0.085	 -0.008	 -9.753	 -0.004	  0.003	 -0.000	 30.500	 99.089	 -99999.000
33332	  0.677	  0.055	  0.499	  0.082	  0.005	 -9.732	 -0.002	  0.002	  0.001	 30.500	 99.077	 -99999.000
33382	  0.678	  0.059	  0.501	  0.083	  0.009	 -9.768	 -0.003	  0.002	  0.000	 30.500	 99.089	 -99999.000
33433	  0.678	  0.052	  0.497	  0.076	  0.010	 -9.785	 -0.003	  0.002	 -0.000	 30.600	 99.082	 -99999.000
33482	  0.678	  0.056	  0.496	  0.094	  0.016	 -9.744	 -0.004	  0.003	 -0.000	 30.500	 99.089	 -99999.000
33533	  0.677	  0.057	  0.500	  0.150	 -0.013	 -9.851	 -0.005	 -0.001	 -0.000	 30.500	 99.089	 -99999.000
33582	  0.675	  0.060	  0.498	  0.114	  0.014	 -9.753	 -0.003	  0.003	  0.001	 30.600	 99.093	 -99999.000
33633	  0.677	  0.052	  0.500	  0.088	 -0.034	 -9.751	 -0.003	  0.002	  0.000	 30.600	 99.093	 -99999.000
33683	  0.675	  0.053	  0.493	  0.098	 -0.009	 -9.761	 -0.004	  0.001	  0.002	 30.600	 99.077	 -99999.000
33733	  0.675	  0.050	  0.496	  0.071	  0.003	 -9.791	 -0.003	  0.003	  0.001	 30.600	 99.093	 -99999.000
33783	  0.674	  0.054	  0.493	  0.104	 -0.008	 -9.794	 -0.003	  0.005	  0.001	 30.600	 99.100	 -99999.000
33833	  0.674	  0.058	  0.501	  0.078	 -0.011	 -9.796	 -0.004	  0.001	  0.000	 30.500	 99.077	 -99999.000
33883	  0.669	  0.061	  0.496	  0.102	 -0.003	 -9.777	 -0.004	  0.001	  0.000	 30.500	 99.082	 -99999.000
33933	  0.672	  0.061	  0.496	  0.081	  0.002	 -9.762	 -0.004	  0.002	  0.000	 30.600	 99.082	 -99999.000
33983	  0.675	  0.049	  0.493	  0.106	 -0.002	 -9.785	 -0.003	  0.003	  0.000	 30.600	 99.093	 -99999.000
34033	  0.679	  0.041	  0.498	  0.081	  0.013	 -9.774	 -0.003	  0.004	 -0.001	 30.500	 99.077	 -99999.000
34083	  0.683	  0.038	  0.498	  0.083	 -0.003	 -9.747	 -0.001	  0.005	  0.001	 30.600	 99.093	 -99999.000
34133	  0.685	  0.048	  0.497	  0.080	  0.003	 -9.763	 -0.004	  0.002	  0.001	 30.600	 99.093	 -99999.000
34183	  0.686	  0.044	  0.498	  0.083	  0.002	 -9.810	 -0.004	  0.002	  0.001	 30.600	 99.082	 -99999.000
34233	  0.681	  0.047	  0.496	  0.067	  0.011	 -9.759	 -0.004	  0.003	 -0.001	 30.500	 99.077	 -99999.000
34283	  0.680	  0.052	  0.495	  0.090	 -0.008	 -9.731	 -0.003	  0.004	  0.000	 30.600	 99.082	 -99999.000
50083	  0.688	  0.026	  0.506	  0.094	  0.017	 -9.811	 -0.004	  0.002	  0.001	 30.600	 99.083	  0.350
50133	  0.689	  0.026	  0.504	  0.073	  0.013	 -9.754	 -0.003	  0.003	  0.001	 30.600	 99.094	 -0.642
50183	  0.687	  0.029	  0.506	  0.102	 -0.011	 -9.803	 -0.004	  0.002	  0.001	 30.600	 99.079	  0.710
50232	  0.689	  0.029	  0.503	  0.083	 -0.017	 -9.785	 -0.004	  0.002	 -0.001	 30.600	 99.094	 -0.642
50282	  0.689	  0.026	  0.504	  0.082	 -0.000	 -9.758	 -0.003	  0.003	  0.001	 30.600	 99.090	 -0.281
50332	  0.688	  0.024	  0.504	  0.085	  0.034	 -9.747	 -0.002	  0.003	  0.001	 30.600	 99.094	 -0.642
50383	  0.687	  0.030	  0.505	  0.082	  0.013	 -9.794	 -0.003	  0.002	 -0.001	 30.600	 99.079	  0.710
50434	  0.686	  0.027	  0.502	  0.082	  0.010	 -9.780	 -0.003	  0.002	  0.001	 30.600	 99.079	  0.710
50484	  0.689	  0.027	  0.503	  0.080	  0.012	 -9.753	 -0.003	  0.003	  0.001	 30.600	 99.083	  0.350
50533	  0.688	  0.028	  0.502	  0.109	  0.010	 -9.796	 -0.002	  0.001	  0.001	 30.600	 99.079	  0.710
50583	  0.688	  0.032	  0.506	  0.090	 -0.009	 -9.749	 -0.003	  0.002	 -0.001	 30.600	 99.090	 -0.281
50633	  0.686	  0.026	  0.503	  0.083	  0.018	 -9.772	 -0.003	  0.002	  0.000	 30.600	 99.083	  0.350
50683	  0.689	  0.025	  0.504	  0.087	  0.019	 -9.736	 -0.003	  0.001	  0.001	 30.600	 99.094	 -0.642
50733	  0.689	  0.027	  0.507	  0.058	  0.010	 -9.754	 -0.001	  0.003	  0.001	 30.600	 99.090	 -0.281
50783	  0.688	  0.025	  0.502	  0.111	  0.006	 -9.774	 -0.005	  0.002	  0.001	 30.600	 99.083	  0.350
50833	  0.688	  0.026	  0.506	  0.075	  0.005	 -9.775	 -0.003	  0.002	  0.001	 30.600	 99.079	  0.710
50883	  0.687	  0.026	  0.506	  0.069	  0.013	 -9.764	 -0.003	  0.002	 -0.000	 30.600	 99.094	 -0.642
50933	  0.686	  0.026	  0.507	  0.096	  0.014	 -9.787	 -0.003	  0.003	  0.001	 30.600	 99.094	 -0.642
50983	  0.687	  0.025	  0.506	  0.101	 -0.006	 -9.758	 -0.003	  0.003	  0.000	 30.600	 99.079	  0.710
51033	  0.688	  0.026	  0.502	  0.078	  0.006	 -9.781	 -0.003	  0.002	 -0.001	 30.600	 99.083	  0.350
51083	  0.688	  0.027	  0.500	  0.104	  0.008	 -9.758	 -0.004	  0.001	 -0.001	 30.600	 99.094	 -0.642
51133	  0.687	  0.026	  0.503	  0.086	 -0.003	 -9.735	 -0.003	  0.001	  0.001	 30.600	 99.087	 -0.011
51183	  0.688	  0.025	  0.503	  0.098	 -0.009	 -9.792	 -0.003	  0.002	 -0.001	 30.600	 99.083	  0.350
51233	  0.688	  0.028	  0.502	  0.081	  0.009	 -9.782	 -0.003	  0.003	 -0.000	 30.600	 99.083	  0.350
51283	  0.688	  0.026	  0.507	  0.106	 -0.003	 -9.730	 -0.004	  0.004	  0.000	 30.600	 99.083	  0.350
51333	  0.688	  0.031	  0.503	  0.090	  0.020	 -9.751	 -0.004	  0.001	 -0.001	 30.600	 99.094	 -0.642
51383	  0.688	  0.030	  0.503	  0.088	 -0.000	 -9.778	 -0.004	  0.002	  0.001	 30.600	 99.083	  0.350
51433	  0.687	  0.026	  0.506	  0.095	  0.020	 -9.784	 -0.004	  0.003	  0.001	 30.600	 99.083	  0.350
51483	  0.688	  0.030	  0.508	  0.091	 -0.016	 -9.761	 -0.003	  0.002	  0.000	 30.600	 99.079	  0.710
51533	  0.688	  0.022	  0.507	  0.104	  0.000	 -9.709	 -0.003	  0.002	  0.000	 30.600	 99.083	  0.350
51583	  0.688	  0.026	  0.506	  0.074	 -0.024	 -9.753	 -0.003	  0.004	  0.001	 30.600	 99.083	  0.350
51633	  0.687	  0.025	  0.502	  0.085	  0.003	 -9.759	 -0.003	  0.003	  0.001	 30.600	 99.094	 -0.642
51683	  0.686	  0.028	  0.504	  0.087	  0.016	 -9.755	 -0.003	  0.003	  0.001	 30.600	 99.067	  1.791
51733	  0.689	  0.028	  0.501	  0.071	 -0.014	 -9.740	 -0.003	  0.003	  0.001	 30.600	 99.083	  0.350
51783	  0.688	  0.034	  0.504	  0.100	  0.019	 -9.802	 -0.003	  0.003	  0.001	 30.600	 99.079	  0.710
51833	  0.687	  0.024	  0.503	  0.080	 -0.013	 -9.737	 -0.003	  0.002	  0.001	 30.600	 99.076	  0.981
51883	  0.688	  0.022	  0.500	  0.079	  0.017	 -9.788	 -0.003	  0.003	  0.002	 30.600	 99.076	  0.981
51933	  0.688	  0.024	  0.506	  0.099	  0.004	 -9.738	 -0.004	  0.002	  0.000	 30.600	 99.072	  1.341
51983	  0.688	  0.030	  0.504	  0.064	 -0.006	 -9.756	 -0.003	  0.003	  0.001	 30.600	 99.072	  1.341
52033	  0.689	  0.024	  0.506	  0.107	 -0.004	 -9.791	 -0.004	  0.002	  0.001	 30.600	 99.067	  1.791
52083	  0.689	  0.028	  0.503	  0.045	 -0.015	 -9.730	 -0.002	  0.001	  0.000	 30.600	 99.083	  0.350
52133	  0.689	  0.026	  0.502	  0.079	 -0.019	 -9.759	 -0.003	  0.002	 -0.000	 30.600	 99.083	  0.350
52183	  0.687	  0.023	  0.509	  0.076	  0.022	 -9.778	 -0.003	  0.001	  0.001	 30.600	 99.094	 -0.642
52233	  0.688	  0.024	  0.503	  0.073	 -0.007	 -9.772	 -0.004	  0.003	  0.001	 30.600	 99.083	  0.350
52283	  0.688	  0.022	  0.502	  0.096	  0.001	 -9.747	 -0.005	  0.002	  0.001	 30.600	 99.072	  1.341
52333	  0.687	  0.026	  0.506	  0.069	  0.001	 -9.778	 -0.003	  0.003	  0.001	 30.600	 99.072	  1.341
52383	  0.687	  0.023	  0.504	  0.088	  0.007	 -9.755	 -0.005	  0.002	  0.000	 30.600	 99.072	  1.341
52433	  0.688	  0.023	  0.504	  0.087	 -0.003	 -9.774	 -0.003	  0.002	  0.001	 30.600	 99.094	 -0.642
52483	  0.688	  0.021	  0.508	  0.097	 -0.007	 -9.742	 -0.004	  0.002	  0.001	 30.600	 99.072	  1.341
52533	  0.689	  0.028	  0.506	  0.083	 -0.010	 -9.767	 -0.003	  0.001	  0.001	 30.600	 99.083	  0.350
52583	  0.687	  0.021	  0.504	  0.093	  0.011	 -9.759	 -0.003	  0.001	  0.001	 30.600	 99.072	  1.341
52633	  0.685	  0.022	  0.504	  0.097	  0.014	 -9.758	 -0.004	  0.002	  0.000	 30.600	 99.087	 -0.011
52683	  0.686	  0.023	  0.506	  0.091	  0.006	 -9.760	 -0.003	  0.002	  0.001	 30.600	 99.087	 -0.011
52733	  0.688	  0.019	  0.507	  0.074	 -0.026	 -9.771	 -0.004	  0.002	  0.000	 30.600	 99.083	  0.350
52783	  0.688	  0.020	  0.503	  0.079	  0.011	 -9.728	 -0.004	  0.003	 -0.000	 30.600	 99.083	  0.350
52833	  0.686	  0.025	  0.507	  0.052	  0.013	 -9.776	 -0.003	  0.004	 -0.001	 30.600	 99.072	  1.341
52883	  0.687	  0.019	  0.504	  0.085	 -0.006	 -9.788	 -0.003	  0.004	  0.000	 30.600	 99.094	 -0.642
52933	  0.686	  0.022	  0.501	  0.086	 -0.008	 -9.767	 -0.003	  0.003	  0.000	 30.600	 99.083	  0.350
52983	  0.688	  0.022	  0.502	  0.090	  0.013	 -9.779	 -0.004	  0.002	 -0.000	 30.600	 99.083	  0.350
53033	  0.683	  0.018	  0.501	  0.077	  0.007	 -9.756	 -0.003	  0.001	  0.001	 30.600	 99.083	  0.350
53083	  0.686	  0.019	  0.501	  0.075	  0.000	 -9.757	 -0.002	  0.002	 -0.001	 30.600	 99.083	  0.350
53133	  0.688	  0.026	  0.506	  0.052	  0.007	 -9.762	 -0.003	  0.002	  0.000	 30.600	 99.094	 -0.642
53183	  0.688	  0.018	  0.504	  0.098	  0.021	 -9.742	 -0.003	  0.001	 -0.000	 30.600	 99.083	  0.350
53233	  0.685	  0.023	  0.505	  0.120	  0.010	 -9.763	 -0.003	  0.001	  0.001	 30.600	 99.076	  0.981
53283	  0.685	  0.019	  0.503	  0.078	  0.005	 -9.750	 -0.003	  0.002	  0.001	 30.600	 99.094	 -0.642
53333	  0.685	  0.019	  0.504	  0.075	  0.008	 -9.732	 -0.003	  0.001	  0.001	 30.600	 99.083	  0.350
53383	  0.685	  0.017	  0.506	  0.099	 -0.016	 -9.765	 -0.003	  0.002	 -0.000	 30.600	 99.083	  0.350
53433	  0.684	  0.017	  0.505	  0.088	  0.000	 -9.760	 -0.004	  0.002	  0.001	 30.600	 99.072	  1.341
53483	  0.683	  0.017	  0.501	  0.104	  0.006	 -9.790	 -0.003	  0.002	  0.001	 30.600	 99.072	  1.341
53533	  0.685	  0.019	  0.498	  0.075	 -0.005	 -9.764	 -0.003	  0.000	 -0.000	 30.600	 99.076	  0.981
53583	  0.685	  0.017	  0.504	  0.071	 -0.000	 -9.774	 -0.003	  0.002	  0.000	 30.600	 99.083	  0.350
53633	  0.685	  0.018	  0.501	  0.086	  0.002	 -9.777	 -0.004	  0.003	 -0.000	 30.600	 99.083	  0.350
53683	  0.685	  0.023	  0.500	  0.090	 -0.005	 -9.737	 -0.003	  0.001	  0.001	 30.600	 99.087	 -0.011
53733	  0.684	  0.016	  0.499	  0.088	 -0.021	 -9.747	 -0.003	  0.002	  0.000	 30.600	 99.072	  1.341
53783	  0.684	  0.018	  0.502	  0.088	 -0.007	 -9.792	 -0.002	  0.001	  0.000	 30.600	 99.076	  0.981
53833	  0.684	  0.017	  0.499	  0.096	 -0.003	 -9.787	 -0.003	  0.002	 -0.001	 30.600	 99.083	  0.350
53883	  0.684	  0.018	  0.500	  0.079	  0.006	 -9.765	 -0.004	  0.004	  0.001	 30.600	 99.072	  1.341
53933	  0.686	  0.020	  0.502	  0.079	 -0.018	 -9.768	 -0.003	  0.002	  0.000	 30.600	 99.087	 -0.011
53983	  0.686	  0.022	  0.502	  0.092	 -0.000	 -9.750	 -0.004	  0.003	  0.000	 30.600	 99.087	 -0.011
54033	  0.685	  0.018	  0.496	  0.087	  0.014	 -9.770	 -0.003	  0.001	  0.000	 30.600	 99.072	  1.341
54083	  0.684	  0.016	  0.500	  0.083	 -0.010	 -9.770	 -0.004	  0.003	  0.000	 30.600	 99.087	 -0.011
54133	  0.683	  0.018	  0.499	  0.112	 -0.001	 -9.754	 -0.004	  0.003	  0.001	 30.600	 99.076	  0.981
54183	  0.683	  0.016	  0.500	  0.080	 -0.023	 -9.797	 -0.004	  0.001	  0.001	 30.600	 99.087	 -0.011
54233	  0.684	  0.016	  0.501	  0.090	  0.002	 -9.756	 -0.002	  0.001	  0.001	 30.600	 99.083	  0.350
54283	  0.684	  0.021	  0.503	  0.094	  0.008	 -9.762	 -0.004	  0.004	  0.000	 30.600	 99.083	  0.350
54332	  0.683	  0.017	  0.502	  0.101	  0.019	 -9.738	 -0.003	  0.002	  0.001	 30.600	 99.083	  0.350
54382	  0.684	  0.017	  0.500	  0.096	  0.010	 -9.751	 -0.004	  0.002	  0.001	 30.600	 99.072	  1.341
54432	  0.683	  0.019	  0.501	  0.065	  0.021	 -9.739	 -0.003	  0.003	  0.001	 30.600	 99.087	 -0.011
54482	  0.684	  0.015	  0.499	  0.099	 -0.001	 -9.760	 -0.003	  0.002	 -0.000	 30.600	 99.083	  0.350
54532	  0.684	  0.023	  0.498	  0.112	 -0.120	 -9.810	 -0.008	  0.002	 -0.001	 30.600	 99.083	  0.350
54582	  0.684	  0.018	  0.499	  0.057	  0.038	 -9.760	 -0.006	  0.000	  0.008	 30.600	 99.083	  0.350
54632	  0.684	  0.018	  0.500	  0.066	  0.013	 -9.767	 -0.002	  0.005	  0.001	 30.600	 99.076	  0.981
54682	  0.685	  0.015	  0.496	  0.128	 -0.039	 -9.738	 -0.004	  0.001	 -0.000	 30.600	 99.087	 -0.011
54732	  0.685	  0.018	  0.498	  0.115	  0.028	 -9.743	  0.001	  0.003	 -0.002	 30.600	 99.083	  0.350
54782	  0.685	  0.014	  0.501	  0.064	 -0.005	 -9.735	 -0.003	  0.003	  0.001	 30.600	 99.083	  0.350
54832	  0.685	  0.018	  0.501	  0.095	 -0.038	 -9.733	 -0.001	  0.003	  0.001	 30.600	 99.087	 -0.011
54882	  0.685	  0.016	  0.499	  0.117	 -0.045	 -9.725	 -0.004	  0.002	 -0.002	 30.600	 99.072	  1.341
54932	  0.682	  0.016	  0.494	  0.063	  0.008	 -9.772	 -0.002	  0.003	 -0.000	 30.600	 99.076	  0.981
54982	  0.684	  0.020	  0.503	  0.044	 -0.012	 -9.762	 -0.003	  0.003	  0.000	 30.600	 99.083	  0.350
55032	  0.683	  0.018	  0.496	  0.089	 -0.006	 -9.770	 -0.003	  0.002	 -0.000	 30.600	 99.087	 -0.011
55082	  0.685	  0.016	  0.496	  0.089	  0.019	 -9.750	 -0.004	  0.003	  0.001	 30.600	 99.083	  0.350
55132	  0.683	  0.019	  0.500	  0.091	 -0.003	 -9.761	 -0.003	  0.002	  0.001	 30.600	 99.083	  0.350
55182	  0.685	  0.017	  0.502	  0.082	  0.005	 -9.757	 -0.004	  0.002	  0.000	 30.600	 99.076	  0.981
55232	  0.685	  0.021	  0.500	  0.074	  0.026	 -9.748	 -0.004	  0.003	  0.001	 30.600	 99.087	 -0.011
55282	  0.683	  0.013	  0.496	  0.092	  0.015	 -9.752	 -0.003	  0.003	  0.000	 30.600	 99.083	  0.350
55333	  0.685	  0.013	  0.498	  0.136	 -0.023	 -9.735	  0.016	  0.012	 -0.001	 30.600	 99.060	  2.422
55382	  0.686	  0.012	  0.500	 -0.039	  0.063	 -9.936	 -0.018	 -0.008	  0.002	 30.600	 99.087	 -0.011
55433	  0.688	  0.013	  0.500	  0.128	  0.019	 -9.754	 -0.013	 -0.003	  0.002	 30.600	 99.076	  0.981
55482	  0.686	  0.019	  0.503	  0.034	  0.049	 -9.778	 -0.002	  0.005	 -0.001	 30.600	 99.087	 -0.011
55532	  0.686	  0.011	  0.498	  0.077	  0.011	 -9.764	 -0.005	  0.001	  0.002	 30.600	 99.072	  1.341
55582	  0.687	  0.016	  0.500	  0.081	  0.001	 -9.773	 -0.002	  0.002	  0.000	 30.600	 99.076	  0.981
55632	  0.685	  0.012	  0.501	  0.090	  0.018	 -9.703	  0.005	  0.013	 -0.001	 30.600	 99.087	 -0.011
55682	  0.687	  0.015	  0.503	  0.412	 -0.520	 -9.572	 -0.095	 -0.066	  0.012	 30.600	 99.087	 -0.011
55732	  0.686	  0.015	  0.503	  0.140	 -0.026	 -9.754	 -0.012	 -0.009	  0.000	 30.600	 99.076	  0.981
55782	  0.687	  0.018	  0.500	  0.082	  0.004	 -9.783	 -0.004	  0.003	  0.000	 30.600	 99.087	 -0.011
55832	  0.687	  0.016	  0.503	  0.080	 -0.024	 -9.734	 -0.003	  0.002	  0.001	 30.600	 99.076	  0.981
55883	  0.686	  0.011	  0.504	  0.073	  0.026	 -9.768	 -0.001	  0.003	  0.001	 30.600	 99.083	  0.350
55932	  0.684	  0.016	  0.500	  0.099	  0.001	 -9.767	 -0.003	  0.002	  0.001	 30.600	 99.087	 -0.011
55983	  0.687	  0.011	  0.501	  0.113	 -0.023	 -9.787	 -0.004	  0.002	  0.001	 30.600	 99.076	  0.981
56032	  0.686	  0.013	  0.500	  0.094	  0.011	 -9.758	 -0.001	  0.004	  0.001	 30.600	 99.083	  0.350
56083	  0.687	  0.014	  0.500	  0.099	  0.031	 -9.753	  0.001	  0.006	 -0.000	 30.600	 99.083	  0.350
56133	  0.686	  0.015	  0.501	  0.095	 -0.009	 -9.798	 -0.004	  0.003	 -0.000	 30.600	 99.072	  1.341
56183	  0.687	  0.011	  0.499	  0.089	  0.373	 -9.794	  0.006	  0.030	 -0.071	 30.600	 99.076	  0.981
56233	  0.684	  0.016	  0.502	  0.049	  0.025	 -9.780	  0.005	  0.007	 -0.000	 30.600	 99.076	  0.981
56283	  0.687	  0.015	  0.506	  0.059	  0.020	 -9.781	  0.001	  0.006	 -0.001	 30.600	 99.087	 -0.011
56333	  0.685	  0.014	  0.503	  0.162	  0.232	 -9.823	 -0.011	  0.001	 -0.013	 30.600	 99.076	  0.981
56383	  0.685	  0.021	  0.503	 -0.333	 -0.692	 -9.844	  0.050	  0.039	 -0.419	 30.600	 99.087	 -0.011
56433	  0.688	  0.023	  0.506	  0.593	  0.530	 -9.477	 -0.020	 -0.027	 -0.067	 30.600	 99.087	 -0.011
56483	  0.687	  0.030	  0.506	 -0.001	 -0.184	 -9.695	 -0.021	  0.027	 -0.135	 30.600	 99.087	 -0.011
56533	  0.688	  0.029	  0.504	  0.358	 -0.031	 -9.910	  0.019	 -0.023	 -0.267	 30.600	 99.087	 -0.011
56583	  0.687	  0.041	  0.504	  0.489	  0.001	 -10.150	 -0.064	  0.064	 -0.158	 30.600	 99.087	 -0.011
56633	  0.683	  0.035	  0.510	  0.530	  0.226	 -9.980	 -0.160	  0.117	  0.055	 30.600	 99.076	  0.981
56683	  0.664	  0.028	  0.522	  1.841	 -0.249	 -13.685	  0.472	  1.190	  0.410	 30.600	 99.087	 -0.011
56733	  0.599	  0.055	  0.571	  0.279	 -0.408	 -6.485	  1.921	  1.052	  0.439	 30.600	 99.076	  0.981
56783	  0.609	  0.070	  0.554	 -7.098	  3.779	  0.666	 -0.601	 -1.794	  0.173	 30.600	 99.076	  0.981
56833	  0.627	  0.006	  0.532	  7.212	  0.926	 -12.611	 -0.584	  0.543	  0.109	 30.600	 99.076	  0.981
56883	  0.618	  0.043	  0.553	 -0.340	 -0.842	 -6.881	  2.210	 -0.058	  0.147	 30.600	 99.087	 -0.011
56933	  0.661	  0.078	  0.526	  0.834	 -1.243	 -13.294	  0.069	 -0.804	 -0.221	 30.600	 99.087	 -0.011
56983	  0.663	  0.107	  0.533	 -2.670	  0.663	 -7.576	  0.746	 -0.671	 -0.102	 30.600	 99.087	 -0.011
57033	  0.674	  0.107	  0.511	  5.301	 -4.864	 -13.464	 -2.645	  0.393	 -0.952	 30.600	 99.087	 -0.011
57083	  0.656	  0.063	  0.538	  0.102	  3.299	 -7.078	  0.612	 -0.472	  0.775	 30.600	 99.087	 -0.011
57133	  0.655	  0.057	  0.539	  2.080	 -3.112	 -12.514	 -2.395	  0.170	 -0.940	 30.600	 99.083	  0.350
57183	  0.660	  0.019	  0.544	 -1.219	  5.103	 -5.886	  2.560	 -1.080	  1.590	 30.600	 99.087	 -0.011
57233	  0.666	  0.041	  0.525	  1.761	 -3.823	 -12.413	 -2.982	 -0.130	 -1.628	 30.600	 99.087	 -0.011
57283	  0.675	  0.032	  0.524	  3.146	 -1.992	 -11.553	  3.241	 -1.016	  1.058	 30.600	 99.087	 -0.011
57333	  0.659	  0.055	  0.529	  3.413	 -2.142	 -13.205	 -2.889	 -0.362	 -1.498	 30.600	 99.072	  1.341
57383	  0.681	  0.053	  0.515	  3.497	 -3.904	 -9.232	  3.042	 -0.345	  0.693	 30.600	 99.083	  0.350
57433	  0.658	  0.065	  0.530	 -3.651	  4.692	 -14.298	 -3.557	  0.370	 -0.913	 30.600	 99.076	  0.981
57483	  0.656	  0.043	  0.530	  5.575	 -6.719	 -7.223	  2.360	 -0.538	  0.722	 30.600	 99.087	 -0.011
57533	  0.643	  0.035	  0.529	 -5.388	 15.723	 -9.681	 -0.840	  0.442	  0.461	 30.600	 99.087	 -0.011
57583	  0.651	  0.050	  0.546	  3.893	 -14.563	 -13.734	  2.811	  0.427	 -0.445	 30.600	 99.087	 -0.011
57633	  0.625	  0.071	  0.540	 -1.609	 12.773	 -5.780	 -2.429	  0.454	  0.194	 30.600	 99.076	  0.981
57683	  0.658	  0.048	  0.533	  3.656	 -18.621	 -17.977	  0.625	  0.081	 -0.372	 30.600	 99.087	 -0.011
57733	  0.612	  0.036	  0.537	  3.359	 14.139	  5.637	 -0.928	  0.024	  0.702	 30.600	 99.076	  0.981
57783	  0.646	  0.064	  0.540	  1.530	 -14.152	 -20.268	 -0.751	  0.574	 -1.196	 30.600	 99.076	  0.981
57833	  0.603	  0.023	  0.553	 -2.022	 13.707	  5.052	 -0.160	 -0.522	  1.207	 30.600	 99.076	  0.981
57883	  0.647	  0.029	  0.534	  1.318	 -8.349	 -19.523	 -1.629	 -0.483	 -1.421	 30.600	 99.076	  0.981
57933	  0.623	  0.034	  0.542	 -2.836	 10.150	  1.845	  3.148	  0.093	  1.633	 30.600	 99.076	  0.981
57983	  0.642	  0.083	  0.531	  0.560	 -5.242	 -15.321	 -1.834	 -0.643	 -1.349	 30.600	 99.087	 -0.011
58033	  0.638	  0.065	  0.534	 -0.165	  5.345	 -3.491	  1.429	 -0.020	  0.440	 30.600	 99.076	  0.981
58083	  0.663	  0.096	  0.527	 -2.081	 -3.195	 -10.920	  1.242	 -0.656	  0.058	 30.600	 99.076	  0.981
58133	  0.671	  0.106	  0.491	 -0.353	 -1.261	 -11.396	 -0.681	  0.050	 -0.259	 30.600	 99.087	 -0.011
58183	  0.652	  0.071	  0.513	 -0.377	  1.371	 -8.961	 -1.331	  0.482	 -0.362	 30.600	 99.087	 -0.011
58233	  0.645	  0.048	  0.537	 -0.381	  0.218	 -9.192	 -0.357	 -0.233	  0.425	 30.600	 99.076	  0.981
58283	  0.645	  0.042	  0.534	  0.527	  0.412	 -9.516	 -0.122	 -0.044	 -0.192	 30.600	 99.076	  0.981
58333	  0.643	  0.040	  0.531	 -0.631	  0.698	 -9.106	 -0.027	 -0.025	 -0.055	 30.600	 99.087	 -0.011
58383	  0.642	  0.055	  0.525	  1.070	 -0.986	 -9.582	  0.409	 -0.216	 -0.096	 30.600	 99.076	  0.981
58433	  0.652	  0.061	  0.516	 -0.329	  0.086	 -9.948	  0.102	 -0.070	  0.041	 30.700	 99.080	  0.620
58483	  0.659	  0.054	  0.508	 -0.331	  0.009	 -10.254	  0.183	 -0.378	  0.182	 30.600	 99.087	 -0.011
58533	  0.663	  0.049	  0.504	 -0.451	 -0.069	 -9.982	 -0.115	 -0.058	  0.007	 30.600	 99.076	  0.981
58583	  0.660	  0.051	  0.505	 -0.496	  0.248	 -9.987	 -0.064	  0.235	  0.034	 30.600	 99.087	 -0.011
58633	  0.654	  0.051	  0.504	  0.056	  0.198	 -10.162	  0.096	 -0.013	  0.015	 30.600	 99.076	  0.981
58683	  0.647	  0.043	  0.519	  2.129	 -2.008	 -19.666	 -0.554	  0.569	  0.007	 30.600	 99.080	  0.620
58733	  0.605	  0.013	  0.520	 -6.304	  2.597	  2.424	 -0.718	 -1.128	 -0.059	 30.700	 99.080	  0.620
58783	  0.649	  0.010	  0.470	  6.439	  4.312	  3.799	 -0.555	  0.887	  0.923	 30.600	 99.087	 -0.011
58833	  0.627	  0.103	  0.528	 -4.535	  4.801	 -19.551	  1.446	  2.104	 -0.426	 30.600	 99.087	 -0.011
58883	  0.651	  0.075	  0.517	 12.449	 -8.743	 -11.893	 -1.550	  0.379	  0.375	 30.600	 99.098	 -1.001
58933	  0.655	 -0.022	  0.508	 -6.706	  3.113	 -17.277	 -1.179	  0.289	  0.529	 30.600	 99.098	 -1.001
58983	  0.638	 -0.044	  0.497	 -2.681	 -3.128	  0.399	 -0.597	 -2.101	 -0.754	 30.600	 99.076	  0.981
59033	  0.672	 -0.075	  0.466	  4.479	  6.484	 -10.352	  1.758	  0.826	  0.957	 30.700	 99.091	 -0.371
59083	  0.667	 -0.007	  0.533	 -5.143	 -3.203	 -12.663	  0.857	 -0.745	 -1.224	 30.600	 99.076	  0.981
59133	  0.691	 -0.043	  0.450	  1.338	  6.756	  1.584	 -1.630	 -0.180	  0.893	 30.700	 99.091	 -0.371
59183	  0.635	 -0.055	  0.568	 -1.506	 -2.174	 -35.589	  0.303	  1.816	 -0.351	 30.600	 99.087	 -0.011
59233	  0.609	 -0.076	  0.585	 -9.258	  6.881	 32.810	 -0.951	 -2.872	  0.233	 30.600	 99.064	  2.061
59283	  0.680	 -0.010	  0.485	  1.337	 -1.899	 -39.689	  1.976	  3.287	 -1.311	 30.600	 99.098	 -1.001
59333	  0.625	  0.032	  0.561	 -11.844	  8.525	 18.417	  0.782	 -1.824	  0.320	 30.700	 99.091	 -0.371
59383	  0.683	  0.040	  0.504	  8.665	 -7.110	 -37.814	  0.677	  1.611	 -0.602	 30.600	 99.091	 -0.371
59433	  0.604	  0.006	  0.584	 -8.582	 13.106	 17.629	 -0.546	 -1.972	  0.292	 30.600	 99.076	  0.981
59483	  0.707	  0.037	  0.463	  2.390	 -10.868	 -43.269	 -2.234	  1.661	 -0.529	 30.600	 99.091	 -0.371
59533	  0.612	  0.002	  0.529	 -7.754	 12.986	 13.740	  1.316	 -0.944	  0.576	 30.600	 99.080	  0.620
59583	  0.695	  0.095	  0.442	  7.483	 -8.359	 -20.609	  0.927	 -1.592	 -1.229	 30.600	 99.091	 -0.371
59633	  0.653	  0.099	  0.511	 -3.145	  3.370	 -12.141	 -1.458	  1.007	 -0.030	 30.600	 99.087	 -0.011
59683	  0.647	  0.052	  0.539	 -3.017	  0.923	  0.938	  1.504	 -1.260	  1.577	 30.600	 99.087	 -0.011
59733	  0.666	  0.049	  0.446	  2.223	 -4.927	 -18.572	 -0.877	  2.004	 -0.845	 30.600	 99.080	  0.620
59783	  0.634	  0.077	  0.497	 -2.209	  2.037	 -9.358	  0.209	 -1.081	 -0.226	 30.600	 99.091	 -0.371
59833	  0.654	  0.074	  0.482	 -3.246	  1.066	 -9.570	  0.085	  0.004	  0.233	 30.600	 99.076	  0.981
59883	  0.651	  0.068	  0.494	 -0.599	 -0.496	 -9.035	 -0.241	  0.520	  0.236	 30.600	 99.076	  0.981
59933	  0.645	  0.066	  0.500	 -1.329	  0.131	 -12.543	  0.009	  0.421	  0.068	 30.600	 99.076	  0.981
59983	  0.638	  0.061	  0.508	  0.772	  0.418	 -9.873	  0.013	  0.081	  0.120	 30.600	 99.087	 -0.011
60033	  0.634	  0.066	  0.517	  0.250	  0.116	 -9.185	  0.401	  0.102	 -0.008	 30.600	 99.080	  0.620
60083	  0.646	  0.083	  0.500	 -0.965	 -0.124	 -9.860	  0.300	 -0.300	 -0.146	 30.600	 99.087	 -0.011
60133	  0.652	  0.081	  0.479	 -0.206	 -0.345	 -9.503	  0.158	 -0.221	  0.044	 30.600	 99.087	 -0.011
60183	  0.654	  0.080	  0.481	 -0.393	 -0.380	 -9.573	  0.141	  0.083	  0.043	 30.600	 99.091	 -0.371
60233	  0.650	  0.092	  0.481	  0.104	 -0.136	 -9.660	  0.061	  0.187	  0.059	 30.600	 99.087	 -0.011
60283	  0.650	  0.083	  0.484	 -0.417	 -0.770	 -9.628	 -0.248	  0.018	  0.057	 30.600	 99.091	 -0.371
60333	  0.650	  0.083	  0.490	 -0.578	 -0.301	 -9.718	  0.138	  0.015	  0.017	 30.600	 99.091	 -0.371
60383	  0.650	  0.086	  0.479	 -0.015	  0.460	 -9.816	  0.006	  0.003	  0.097	 30.600	 99.091	 -0.371
60433	  0.655	  0.076	  0.480	 -0.142	 -0.296	 -11.016	  0.097	  0.006	  0.077	 30.600	 99.087	 -0.011
60483	  0.657	  0.082	  0.484	  0.009	 -0.101	 -10.532	  0.034	  0.065	 -0.068	 30.600	 99.080	  0.620
60533	  0.655	  0.078	  0.485	 -0.329	 -0.366	 -9.756	  0.005	  0.019	 -0.010	 30.600	 99.087	 -0.011
60583	  0.656	  0.078	  0.490	 -0.310	 -0.386	 -9.758	  0.024	  0.064	  0.004	 30.600	 99.091	 -0.371
60633	  0.652	  0.085	  0.486	 -0.308	 -0.378	 -9.768	  0.006	  0.032	 -0.000	 30.600	 99.091	 -0.371
60683	  0.652	  0.076	  0.489	 -0.295	 -0.377	 -9.757	  0.006	  0.020	  0.001	 30.600	 99.091	 -0.371
60733	  0.650	  0.078	  0.484	 -0.435	 -0.346	 -9.787	  0.012	  0.038	  0.002	 30.600	 99.102	 -1.362
60783	  0.650	  0.078	  0.490	 -0.178	 -0.429	 -9.751	  0.014	  0.052	 -0.001	 30.600	 99.091	 -0.371
60833	  0.650	  0.079	  0.491	  0.902	  0.577	 -9.881	 -0.009	 -0.123	  0.012	 30.600	 99.076	  0.981
60884	  0.647	  0.080	  0.492	 -0.565	 -0.608	 -9.866	 -0.012	  0.028	  0.002	 30.600	 99.087	 -0.011
60933	  0.649	  0.088	  0.492	 -0.288	 -0.449	 -9.738	  0.021	  0.064	 -0.009	 30.600	 99.080	  0.620
60983	  0.645	  0.082	  0.493	 -0.204	 -0.425	 -9.772	  0.044	  0.118	 -0.005	 30.600	 99.087	 -0.011
61033	  0.647	  0.079	  0.494	 -0.379	 -0.456	 -9.820	 -0.027	 -0.032	  0.002	 30.600	 99.091	 -0.371
61083	  0.647	  0.087	  0.497	 -0.248	 -0.581	 -9.782	  0.008	  0.028	  0.009	 30.600	 99.087	 -0.011
61134	  0.643	  0.081	  0.494	 -0.035	 -0.577	 -9.663	  0.048	  0.147	  0.025	 30.600	 99.087	 -0.011
61183	  0.644	  0.081	  0.491	 -0.113	 -0.480	 -9.691	 -0.032	 -0.085	  0.015	 30.600	 99.091	 -0.371
61234	  0.645	  0.081	  0.490	 -0.158	 -0.465	 -9.737	 -0.001	  0.010	 -0.001	 30.600	 99.064	  2.061
61283	  0.643	  0.086	  0.495	 -0.130	 -0.482	 -9.751	  0.007	  0.050	  0.000	 30.600	 99.080	  0.620
61333	  0.645	  0.077	  0.493	 -0.160	 -0.445	 -9.745	 -0.020	 -0.061	  0.008	 30.600	 99.076	  0.981
61383	  0.646	  0.079	  0.494	 -0.128	 -0.506	 -9.734	  0.021	  0.064	  0.025	 30.600	 99.102	 -1.362
61433	  0.643	  0.083	  0.498	 -0.021	 -0.510	 -9.728	  0.022	  0.061	 -0.003	 30.600	 99.091	 -0.371
61483	  0.641	  0.082	  0.498	 -0.178	 -0.417	 -9.775	  0.050	  0.147	 -0.015	 30.600	 99.080	  0.620
61533	  0.636	  0.083	  0.502	  0.150	 -0.465	 -9.717	  0.038	  0.112	 -0.008	 30.600	 99.076	  0.981
61584	  0.638	  0.083	  0.497	 -0.271	 -0.516	 -9.970	 -0.011	 -0.003	 -0.005	 30.600	 99.087	 -0.011
61634	  0.639	  0.082	  0.501	 -0.146	 -0.439	 -9.795	  0.017	  0.040	 -0.023	 30.700	 99.080	  0.620
61684	  0.637	  0.083	  0.499	  0.019	 -0.517	 -9.736	 -0.003	  0.001	  0.002	 30.600	 99.087	 -0.011
61734	  0.637	  0.089	  0.502	  0.061	 -0.538	 -9.724	  0.013	  0.050	 -0.002	 30.600	 99.080	  0.620
61784	  0.633	  0.084	  0.504	  0.103	 -0.419	 -9.763	  0.005	  0.021	  0.003	 30.600	 99.080	  0.620
61833	  0.633	  0.084	  0.498	  0.096	 -0.509	 -9.733	 -0.003	  0.017	  0.001	 30.700	 99.091	 -0.371
61883	  0.636	  0.086	  0.503	 -0.034	 -0.546	 -9.720	  0.015	  0.023	 -0.001	 30.600	 99.091	 -0.371
61934	  0.635	  0.087	  0.501	  0.058	 -0.567	 -9.720	 -0.014	 -0.031	 -0.064	 30.600	 99.080	  0.620
61984	  0.633	  0.086	  0.502	  0.064	 -0.487	 -9.752	 -0.022	 -0.053	  0.009	 30.600	 99.091	 -0.371
62034	  0.637	  0.090	  0.501	 -0.053	 -0.469	 -9.792	 -0.005	 -0.003	 -0.002	 30.600	 99.091	 -0.371
62084	  0.633	  0.085	  0.501	 -0.036	 -0.477	 -9.763	  0.010	  0.048	 -0.000	 30.600	 99.091	 -0.371
62134	  0.632	  0.087	  0.503	  0.064	 -0.511	 -9.709	  0.002	  0.020	 -0.003	 30.600	 99.080	  0.620
62184	  0.636	  0.084	  0.505	 -0.014	 -0.509	 -9.749	 -0.008	 -0.011	 -0.000	 30.600	 99.091	 -0.371
62234	  0.634	  0.088	  0.502	  0.036	 -0.477	 -9.751	 -0.006	 -0.009	  0.006	 30.600	 99.076	  0.981
62284	  0.635	  0.088	  0.502	 -0.021	 -0.496	 -9.770	 -0.011	 -0.017	  0.005	 30.600	 99.091	 -0.371
62334	  0.633	  0.086	  0.504	 -0.003	 -0.514	 -9.760	  0.001	  0.015	  0.002	 30.600	 99.080	  0.620
62384	  0.635	  0.088	  0.501	 -0.039	 -0.513	 -9.753	 -0.003	  0.005	  0.008	 30.600	 99.091	 -0.371
62434	  0.634	  0.087	  0.502	 -0.019	 -0.540	 -9.765	 -0.001	  0.014	  0.006	 30.600	 99.091	 -0.371
62484	  0.632	  0.085	  0.501	 -0.022	 -0.533	 -9.790	 -0.004	  0.004	  0.010	 30.600	 99.091	 -0.371
62534	  0.633	  0.086	  0.507	  0.095	 -0.505	 -9.728	 -0.006	 -0.000	  0.002	 30.600	 99.080	  0.620
62584	  0.635	  0.089	  0.506	  0.015	 -0.513	 -9.738	 -0.007	 -0.006	  0.001	 30.600	 99.080	  0.620
62634	  0.633	  0.086	  0.503	 -0.035	 -0.542	 -9.749	 -0.003	  0.003	  0.004	 30.600	 99.091	 -0.371
62684	  0.635	  0.088	  0.503	  0.012	 -0.507	 -9.734	 -0.004	  0.006	  0.000	 30.600	 99.080	  0.620
62734	  0.635	  0.083	  0.503	  0.026	 -0.497	 -9.777	 -0.004	  0.008	  0.002	 30.600	 99.080	  0.620
62784	  0.634	  0.086	  0.502	  0.003	 -0.535	 -9.770	 -0.001	  0.008	  0.002	 30.700	 99.084	  0.260
62833	  0.634	  0.092	  0.502	 -0.008	 -0.534	 -9.749	  0.001	  0.009	  0.002	 30.600	 99.080	  0.620
62883	  0.635	  0.080	  0.501	  0.040	 -0.520	 -9.732	 -0.003	  0.010	  0.004	 30.600	 99.080	  0.620
62933	  0.634	  0.085	  0.500	  0.019	 -0.520	 -9.715	 -0.003	  0.015	  0.002	 30.700	 99.084	  0.260
62983	  0.633	  0.088	  0.502	  0.034	 -0.477	 -9.807	 -0.003	  0.016	  0.002	 30.600	 99.084	  0.260
63033	  0.634	  0.083	  0.503	  0.016	 -0.527	 -9.739	  0.000	  0.015	  0.002	 30.600	 99.091	 -0.371
63083	  0.634	  0.083	  0.497	  0.066	 -0.522	 -9.745	 -0.002	  0.032	  0.001	 30.600	 99.102	 -1.362
63133	  0.628	  0.089	  0.504	 -0.019	 -0.494	 -9.691	 -0.005	  0.040	  0.004	 30.600	 99.080	  0.620
63183	  0.627	  0.087	  0.504	  0.059	 -0.515	 -9.734	 -0.001	  0.003	  0.002	 30.600	 99.080	  0.620
63233	  0.631	  0.080	  0.506	  0.074	 -0.520	 -9.817	 -0.005	  0.001	  0.001	 30.600	 99.091	 -0.371
63283	  0.628	  0.087	  0.503	  0.051	 -0.521	 -9.770	 -0.005	 -0.024	 -0.000	 30.600	 99.080	  0.620
63333	  0.629	  0.082	  0.502	  0.110	 -0.475	 -9.746	 -0.004	  0.005	 -0.008	 30.600	 99.080	  0.620
63383	  0.632	  0.084	  0.503	  0.079	 -0.523	 -9.742	 -0.005	  0.022	 -0.009	 30.600	 99.091	 -0.371
63433	  0.631	  0.086	  0.502	  0.044	 -0.513	 -9.764	 -0.005	  0.019	 -0.002	 30.600	 99.080	  0.620
63483	  0.630	  0.091	  0.507	  0.085	 -0.542	 -9.740	 -0.007	 -0.006	 -0.000	 30.600	 99.080	  0.620
63533	  0.630	  0.084	  0.502	  0.023	 -0.530	 -9.766	 -0.007	 -0.017	  0.002	 30.700	 99.084	  0.260
63583	  0.629	  0.085	  0.499	  0.034	 -0.501	 -9.834	 -0.006	  0.022	  0.004	 30.600	 99.091	 -0.371
63633	  0.630	  0.086	  0.507	 -0.029	 -0.518	 -9.748	 -0.010	  0.011	  0.018	 30.600	 99.080	  0.620
63683	  0.630	  0.083	  0.504	  0.180	 -0.458	 -9.786	 -0.007	  0.013	  0.015	 30.600	 99.080	  0.620
63733	  0.628	  0.086	  0.507	  0.011	 -0.480	 -9.743	 -0.021	  0.020	  0.008	 30.600	 99.091	 -0.371
63783	  0.626	  0.083	  0.505	  0.146	 -0.450	 -9.866	 -0.038	  0.022	  0.014	 30.700	 99.084	  0.260
63833	  0.625	  0.079	  0.502	 -0.009	 -0.320	 -9.881	 -0.006	  0.014	  0.010	 30.600	 99.069	  1.611
63883	  0.626	  0.081	  0.509	 -0.085	 -0.353	 -9.543	 -0.030	  0.030	  0.011	 30.600	 99.076	  0.981
63933	  0.622	  0.079	  0.507	  0.145	 -0.537	 -9.722	 -0.001	 -0.021	 -0.014	 30.600	 99.080	  0.620
63983	  0.623	  0.079	  0.504	  0.156	 -0.455	 -9.706	 -0.004	  0.011	  0.019	 30.600	 99.091	 -0.371
64033	  0.626	  0.081	  0.508	  0.104	 -0.471	 -9.772	  0.007	  0.002	  0.005	 30.600	 99.080	  0.620
64083	  0.624	  0.078	  0.506	  0.106	 -0.490	 -9.747	  0.007	  0.000	  0.015	 30.600	 99.091	 -0.371
64133	  0.625	  0.082	  0.503	  0.079	 -0.476	 -9.684	  0.006	  0.010	  0.007	 30.700	 99.080	  0.620
64183	  0.624	  0.085	  0.506	  0.068	 -0.521	 -9.759	 -0.004	  0.001	  0.001	 30.600	 99.091	 -0.371
64233	  0.622	  0.081	  0.506	  0.352	 -0.633	 -9.826	  0.019	 -0.018	  0.028	 30.600	 99.080	  0.620
64283	  0.624	  0.083	  0.506	  0.211	 -0.393	 -9.952	  0.014	 -0.054	  0.030	 30.600	 99.080	  0.620
64333	  0.624	  0.076	  0.506	  0.152	 -0.635	 -9.483	  0.035	  0.005	  0.062	 30.700	 99.084	  0.260
64383	  0.630	  0.081	  0.498	 -1.685	 -0.836	 -9.856	  0.021	  0.054	 -0.044	 30.700	 99.080	  0.620
64433	  0.627	  0.081	  0.504	  0.136	 -0.531	 -9.754	 -0.003	  0.007	 -0.003	 30.600	 99.091	 -0.371
64483	  0.628	  0.079	  0.499	  0.116	 -0.588	 -9.715	 -0.003	  0.001	 -0.001	 30.700	 99.084	  0.260
64533	  0.629	  0.080	  0.501	  0.088	 -0.579	 -9.790	 -0.002	  0.002	 -0.003	 30.700	 99.084	  0.260
64583	  0.630	  0.078	  0.502	  0.074	 -0.505	 -9.727	 -0.002	  0.004	 -0.000	 30.600	 99.080	  0.620
64633	  0.631	  0.081	  0.503	  0.050	 -0.516	 -9.763	  0.000	  0.008	 -0.001	 30.600	 99.091	 -0.371
64683	  0.627	  0.080	  0.499	  0.064	 -0.533	 -9.776	 -0.002	  0.004	 -0.000	 30.600	 99.080	  0.620
64733	  0.629	  0.081	  0.503	  0.057	 -0.520	 -9.755	 -0.004	  0.002	  0.001	 30.600	 99.080	  0.620
64783	  0.631	  0.084	  0.501	  0.067	 -0.537	 -9.759	 -0.003	  0.002	  0.000	 30.700	 99.102	 -1.362
64833	  0.630	  0.080	  0.500	  0.071	 -0.552	 -9.778	 -0.003	  0.002	 -0.000	 30.600	 99.080	  0.620
64883	  0.626	  0.081	  0.501	  0.082	 -0.522	 -9.776	 -0.004	  0.002	  0.001	 30.700	 99.073	  1.251
64933	  0.628	  0.081	  0.499	  0.100	 -0.547	 -9.739	 -0.004	  0.003	  0.000	 30.700	 99.095	 -0.731
64983	  0.628	  0.079	  0.498	  0.083	 -0.540	 -9.748	 -0.004	  0.003	 -0.000	 30.700	 99.091	 -0.371
65033	  0.629	  0.084	  0.502	  0.081	 -0.540	 -9.714	 -0.004	  0.003	 -0.000	 30.700	 99.084	  0.260
65083	  0.628	  0.081	  0.504	  0.060	 -0.529	 -9.764	 -0.003	  0.003	 -0.000	 30.600	 99.080	  0.620
65133	  0.630	  0.087	  0.503	  0.069	 -0.543	 -9.752	 -0.003	  0.002	  0.001	 30.700	 99.095	 -0.731
65183	  0.626	  0.080	  0.503	  0.032	 -0.534	 -9.777	 -0.003	  0.005	  0.002	 30.700	 99.080	  0.620
65233	  0.629	  0.081	  0.501	  0.077	 -0.554	 -9.732	 -0.003	  0.001	 -0.000	 30.700	 99.080	  0.620
65283	  0.629	  0.083	  0.502	  0.056	 -0.522	 -9.741	 -0.003	  0.001	  0.001	 30.700	 99.073	  1.251
65333	  0.629	  0.082	  0.503	  0.089	 -0.538	 -9.745	 -0.003	  0.003	 -0.001	 30.700	 99.095	 -0.731
65383	  0.628	  0.081	  0.500	  0.083	 -0.558	 -9.737	 -0.003	  0.003	 -0.000	 30.700	 99.084	  0.260
65433	  0.627	  0.079	  0.504	  0.071	 -0.553	 -9.745	 -0.004	  0.002	  0.000	 30.700	 99.084	  0.260
65483	  0.628	  0.080	  0.500	  0.076	 -0.548	 -9.743	 -0.004	  0.002	  0.001	 30.700	 99.091	 -0.371
65533	  0.630	  0.079	  0.506	  0.093	 -0.540	 -9.765	 -0.002	  0.000	  0.001	 30.700	 99.080	  0.620
65583	  0.629	  0.081	  0.496	  0.067	 -0.529	 -9.762	 -0.003	  0.002	  0.000	 30.700	 99.084	  0.260
65633	  0.627	  0.080	  0.500	  0.095	 -0.550	 -9.737	 -0.003	  0.003	  0.000	 30.700	 99.080	  0.620
65683	  0.629	  0.080	  0.502	  0.079	 -0.527	 -9.746	 -0.003	  0.002	  0.000	 30.700	 99.080	  0.620
65733	  0.629	  0.084	  0.500	  0.089	 -0.545	 -9.760	 -0.003	  0.003	 -0.000	 30.700	 99.084	  0.260
65783	  0.628	  0.086	  0.502	  0.070	 -0.531	 -9.754	 -0.004	  0.002	 -0.000	 30.700	 99.084	  0.260
65833	  0.627	  0.082	  0.496	  0.083	 -0.531	 -9.769	 -0.004	  0.002	  0.001	 30.700	 99.084	  0.260
65883	  0.629	  0.078	  0.501	  0.078	 -0.546	 -9.756	 -0.004	  0.002	  0.001	 30.700	 99.084	  0.260
65933	  0.628	  0.083	  0.498	  0.094	 -0.528	 -9.712	 -0.004	  0.003	  0.001	 30.700	 99.091	 -0.371
65983	  0.629	  0.079	  0.503	  0.092	 -0.532	 -9.765	 -0.004	  0.003	  0.001	 30.700	 99.080	  0.620
66033	  0.631	  0.079	  0.499	  0.103	 -0.518	 -9.733	 -0.002	  0.003	  0.000	 30.700	 99.084	  0.260
66083	  0.628	  0.077	  0.500	  0.073	 -0.515	 -9.739	 -0.004	  0.001	 -0.001	 30.700	 99.084	  0.260
66133	  0.629	  0.079	  0.498	  0.078	 -0.542	 -9.729	 -0.003	  0.001	 -0.001	 30.700	 99.084	  0.260
66183	  0.629	  0.083	  0.504	  0.079	 -0.530	 -9.736	 -0.004	  0.001	  0.001	 30.700	 99.084	  0.260
66233	  0.628	  0.081	  0.500	  0.075	 -0.514	 -9.750	 -0.004	  0.002	 -0.000	 30.700	 99.084	  0.260
66283	  0.628	  0.079	  0.502	  0.057	 -0.527	 -9.753	 -0.003	  0.002	  0.001	 30.700	 99.084	  0.260
66333	  0.625	  0.081	  0.500	  0.084	 -0.547	 -9.768	 -0.003	  0.002	  0.000	 30.700	 99.084	  0.260
66383	  0.627	  0.083	  0.499	  0.061	 -0.554	 -9.751	 -0.004	  0.002	  0.001	 30.700	 99.095	 -0.731
66433	  0.628	  0.079	  0.503	  0.067	 -0.516	 -9.785	 -0.003	  0.003	 -0.001	 30.700	 99.080	  0.620
66483	  0.626	  0.079	  0.499	  0.085	 -0.518	 -9.770	 -0.003	  0.002	  0.000	 30.700	 99.084	  0.260
66534	  0.629	  0.087	  0.501	  0.092	 -0.525	 -9.747	 -0.003	  0.003	  0.000	 30.700	 99.084	  0.260
66583	  0.629	  0.084	  0.498	  0.066	 -0.564	 -9.751	 -0.003	  0.002	 -0.000	 30.700	 99.080	  0.620
66633	  0.629	  0.086	  0.503	  0.089	 -0.540	 -9.729	 -0.004	  0.003	  0.001	 30.700	 99.084	  0.260
66683	  0.630	  0.078	  0.504	  0.101	 -0.515	 -9.737	 -0.003	  0.002	  0.001	 30.700	 99.084	  0.260
66733	  0.629	  0.086	  0.501	  0.098	 -0.564	 -9.718	 -0.004	  0.001	 -0.000	 30.700	 99.069	  1.611
66784	  0.632	  0.085	  0.501	  0.069	 -0.528	 -9.749	 -0.002	  0.002	 -0.000	 30.700	 99.084	  0.260
66833	  0.628	  0.085	  0.501	  0.079	 -0.541	 -9.719	 -0.003	  0.002	  0.001	 30.700	 99.084	  0.260
66883	  0.629	  0.084	  0.502	  0.094	 -0.551	 -9.694	 -0.003	  0.004	  0.001	 30.700	 99.080	  0.620
66933	  0.630	  0.083	  0.500	  0.071	 -0.533	 -9.736	 -0.003	  0.002	 -0.000	 30.700	 99.084	  0.260
66984	  0.628	  0.085	  0.507	  0.085	 -0.524	 -9.732	 -0.003	  0.000	  0.000	 30.700	 99.073	  1.251
67033	  0.630	  0.080	  0.502	  0.088	 -0.529	 -9.763	 -0.003	  0.002	 -0.000	 30.700	 99.084	  0.260
67082	  0.633	  0.084	  0.503	  0.091	 -0.561	 -9.752	 -0.003	  0.002	  0.000	 30.700	 99.084	  0.260
67132	  0.630	  0.082	  0.502	  0.103	 -0.536	 -9.734	 -0.003	  0.002	  0.001	 30.700	 99.084	  0.260
67183	  0.630	  0.083	  0.504	  0.088	 -0.521	 -9.730	 -0.005	  0.003	 -0.000	 30.700	 99.084	  0.260
67234	  0.627	  0.084	  0.500	  0.074	 -0.542	 -9.729	 -0.002	  0.003	  0.001	 30.700	 99.084	  0.260
67284	  0.630	  0.083	  0.501	  0.088	 -0.523	 -9.716	 -0.003	  0.003	  0.000	 30.700	 99.084	  0.260
67334	  0.630	  0.080	  0.501	  0.069	 -0.560	 -9.761	 -0.003	  0.003	  0.001	 30.700	 99.095	 -0.731
67384	  0.631	  0.084	  0.499	  0.104	 -0.536	 -9.777	 -0.003	  0.002	  0.001	 30.700	 99.084	  0.260
67434	  0.629	  0.086	  0.502	  0.099	 -0.532	 -9.747	 -0.004	  0.003	  0.001	 30.700	 99.100	 -1.181
67484	  0.630	  0.088	  0.502	  0.082	 -0.542	 -9.737	 -0.004	  0.001	  0.001	 30.700	 99.084	  0.260
67533	  0.632	  0.085	  0.503	  0.082	 -0.540	 -9.779	 -0.003	  0.003	  0.000	 30.700	 99.084	  0.260
67583	  0.632	  0.087	  0.499	  0.092	 -0.523	 -9.711	 -0.003	  0.002	  0.000	 30.700	 99.084	  0.260
67633	  0.628	  0.090	  0.503	  0.087	 -0.550	 -9.777	 -0.003	  0.002	  0.001	 30.700	 99.084	  0.260
67683	  0.630	  0.081	  0.502	  0.088	 -0.554	 -9.769	 -0.003	  0.003	  0.001	 30.700	 99.084	  0.260
67734	  0.629	  0.085	  0.502	  0.068	 -0.518	 -9.749	 -0.004	  0.003	  0.001	 30.700	 99.084	  0.260
67784	  0.630	  0.083	  0.500	  0.107	 -0.545	 -9.763	 -0.004	  0.003	 -0.001	 30.700	 99.084	  0.260
67833	  0.631	  0.084	  0.502	  0.087	 -0.547	 -9.698	 -0.004	  0.001	  0.000	 30.700	 99.084	  0.260
67883	  0.631	  0.085	  0.503	  0.069	 -0.520	 -9.749	 -0.002	  0.000	 -0.001	 30.700	 99.084	  0.260
67933	  0.629	  0.083	  0.500	  0.066	 -0.508	 -9.748	 -0.003	  0.001	 -0.000	 30.700	 99.084	  0.260
67983	  0.630	  0.084	  0.501	  0.070	 -0.540	 -9.752	 -0.002	  0.005	  0.001	 30.700	 99.084	  0.260
68033	  0.629	  0.086	  0.502	  0.107	 -0.515	 -9.770	 -0.003	  0.002	  0.000	 30.600	 99.080	  0.620
68083	  0.631	  0.086	  0.500	  0.088	 -0.524	 -9.734	 -0.003	  0.003	  0.000	 30.700	 99.084	  0.260
68133	  0.630	  0.082	  0.501	  0.092	 -0.540	 -9.746	 -0.004	  0.002	 -0.000	 30.700	 99.095	 -0.731
68183	  0.628	  0.085	  0.500	  0.081	 -0.536	 -9.749	 -0.002	  0.002	 -0.000	 30.700	 99.077	  0.890
68233	  0.628	  0.083	  0.502	  0.061	 -0.523	 -9.744	 -0.004	  0.003	  0.000	 30.600	 99.091	 -0.371
68283	  0.633	  0.083	  0.500	  0.068	 -0.538	 -9.741	 -0.004	  0.003	  0.000	 30.700	 99.073	  1.251
68333	  0.630	  0.084	  0.499	  0.089	 -0.550	 -9.742	 -0.003	  0.003	 -0.000	 30.700	 99.084	  0.260
68383	  0.630	  0.085	  0.502	  0.090	 -0.544	 -9.759	 -0.004	  0.001	 -0.000	 30.700	 99.084	  0.260
68433	  0.630	  0.086	  0.504	  0.094	 -0.551	 -9.782	 -0.002	  0.004	  0.000	 30.700	 99.084	  0.260
68483	  0.629	  0.085	  0.504	  0.094	 -0.552	 -9.727	 -0.002	  0.002	  0.000	 30.700	 99.073	  1.251
68533	  0.630	  0.092	  0.503	  0.067	 -0.514	 -9.723	 -0.003	  0.002	  0.001	 30.700	 99.084	  0.260
68583	  0.629	  0.083	  0.501	  0.067	 -0.541	 -9.751	 -0.003	  0.001	  0.000	 30.700	 99.073	  1.251
68633	  0.628	  0.084	  0.501	  0.064	 -0.520	 -9.742	 -0.004	  0.002	  0.001	 30.700	 99.088	 -0.100
68683	  0.630	  0.088	  0.506	  0.072	 -0.542	 -9.742	 -0.003	  0.003	  0.000	 30.700	 99.084	  0.260
68733	  0.629	  0.082	  0.504	  0.082	 -0.525	 -9.743	 -0.003	  0.001	  0.001	 30.700	 99.073	  1.251
68783	  0.630	  0.083	  0.502	  0.104	 -0.518	 -9.782	 -0.004	  0.003	  0.001	 30.700	 99.088	 -0.100
68833	  0.628	  0.082	  0.501	  0.078	 -0.543	 -9.743	 -0.003	  0.003	  0.001	 30.700	 99.084	  0.260
68883	  0.630	  0.085	  0.502	  0.091	 -0.541	 -9.719	 -0.005	  0.002	 -0.000	 30.700	 99.088	 -0.100
68933	  0.629	  0.082	  0.501	  0.067	 -0.533	 -9.758	 -0.003	  0.003	  0.001	 30.700	 99.077	  0.890
68983	  0.629	  0.084	  0.498	  0.068	 -0.545	 -9.724	 -0.003	  0.001	  0.000	 30.700	 99.100	 -1.181
69033	  0.629	  0.084	  0.501	  0.096	 -0.545	 -9.740	 -0.003	  0.002	  0.001	 30.700	 99.084	  0.260
69083	  0.630	  0.082	  0.506	  0.085	 -0.533	 -9.757	 -0.003	  0.002	 -0.000	 30.700	 99.084	  0.260
69133	  0.629	  0.084	  0.504	  0.078	 -0.517	 -9.796	 -0.002	  0.004	 -0.001	 30.700	 99.084	  0.260
69183	  0.628	  0.084	  0.507	  0.072	 -0.521	 -9.754	 -0.004	  0.003	  0.001	 30.700	 99.073	  1.251
69233	  0.631	  0.086	  0.501	  0.082	 -0.520	 -9.749	 -0.004	  0.003	 -0.000	 30.700	 99.077	  0.890
69283	  0.630	  0.084	  0.500	  0.089	 -0.533	 -9.714	 -0.004	  0.002	  0.001	 30.700	 99.088	 -0.100
69333	  0.630	  0.085	  0.501	  0.067	 -0.555	 -9.797	 -0.003	  0.002	 -0.000	 30.700	 99.084	  0.260
69383	  0.630	  0.085	  0.500	  0.090	 -0.529	 -9.739	 -0.004	  0.001	  0.001	 30.700	 99.088	 -0.100
69433	  0.629	  0.084	  0.503	  0.106	 -0.553	 -9.770	 -0.005	  0.001	 -0.000	 30.700	 99.073	  1.251
69483	  0.629	  0.082	  0.502	  0.075	 -0.555	 -9.781	 -0.004	  0.002	 -0.000	 30.700	 99.084	  0.260
69533	  0.631	  0.087	  0.500	  0.079	 -0.525	 -9.763	 -0.003	  0.002	 -0.000	 30.700	 99.088	 -0.100
69583	  0.630	  0.086	  0.501	  0.074	 -0.531	 -9.752	 -0.003	  0.002	  0.001	 30.700	 99.084	  0.260
69634	  0.630	  0.083	  0.501	  0.087	 -0.550	 -9.740	 -0.004	  0.002	  0.001	 30.700	 99.073	  1.251
69683	  0.629	  0.086	  0.501	  0.096	 -0.506	 -9.729	 -0.004	  0.002	  0.000	 30.700	 99.077	  0.890
69733	  0.629	  0.084	  0.500	  0.065	 -0.518	 -9.783	 -0.003	  0.003	  0.002	 30.700	 99.088	 -0.100
69783	  0.631	  0.083	  0.504	  0.095	 -0.529	 -9.761	 -0.003	  0.003	  0.001	 30.700	 99.095	 -0.731
69833	  0.630	  0.086	  0.502	  0.073	 -0.523	 -9.762	 -0.004	  0.002	  0.001	 30.700	 99.077	  0.890
69883	  0.630	  0.083	  0.500	  0.055	 -0.544	 -9.746	 -0.003	  0.004	  0.001	 30.700	 99.088	 -0.100
69933	  0.631	  0.088	  0.503	  0.086	 -0.523	 -9.781	 -0.002	  0.002	  0.001	 30.700	 99.084	  0.260
69983	  0.626	  0.080	  0.504	  0.077	 -0.532	 -9.748	 -0.003	  0.002	 -0.000	 30.700	 99.084	  0.260
70033	  0.630	  0.083	  0.501	  0.099	 -0.531	 -9.745	 -0.004	  0.002	  0.000	 30.700	 99.084	  0.260
70083	  0.629	  0.085	  0.502	  0.107	 -0.552	 -9.762	 -0.004	  0.003	 -0.001	 30.700	 99.066	  1.881
70133	  0.631	  0.087	  0.503	  0.093	 -0.540	 -9.796	 -0.003	  0.001	  0.000	 30.700	 99.073	  1.251
70183	  0.630	  0.089	  0.503	  0.089	 -0.530	 -9.739	 -0.003	  0.003	  0.000	 30.700	 99.073	  1.251
70233	  0.632	  0.090	  0.501	  0.068	 -0.542	 -9.782	 -0.004	  0.001	  0.001	 30.700	 99.084	  0.260
70283	  0.630	  0.084	  0.498	  0.095	 -0.529	 -9.743	 -0.003	  0.002	 -0.000	 30.700	 99.084	  0.260
70333	  0.631	  0.080	  0.503	  0.063	 -0.528	 -9.720	 -0.004	  0.002	  0.002	 30.700	 99.084	  0.260
70383	  0.631	  0.084	  0.502	  0.078	 -0.547	 -9.726	 -0.004	  0.000	  0.000	 30.700	 99.095	 -0.731
70433	  0.629	  0.087	  0.502	  0.071	 -0.519	 -9.756	 -0.003	  0.002	  0.002	 30.700	 99.095	 -0.731
70483	  0.630	  0.088	  0.501	  0.078	 -0.518	 -9.775	 -0.004	  0.003	  0.001	 30.700	 99.088	 -0.100
70533	  0.629	  0.086	  0.502	  0.074	 -0.534	 -9.757	 -0.003	  0.003	  0.001	 30.700	 99.095	 -0.731
70583	  0.629	  0.083	  0.502	  0.095	 -0.528	 -9.728	 -0.003	  0.003	  0.000	 30.700	 99.088	 -0.100
70633	  0.630	  0.087	  0.500	  0.082	 -0.538	 -9.759	 -0.003	  0.002	  0.001	 30.700	 99.088	 -0.100
70683	  0.630	  0.088	  0.504	  0.096	 -0.530	 -9.731	 -0.003	  0.003	  0.000	 30.700	 99.077	  0.890
70733	  0.626	  0.084	  0.505	  0.109	 -0.534	 -9.747	 -0.003	  0.003	  0.000	 30.700	 99.088	 -0.100
70783	  0.631	  0.084	  0.503	  0.077	 -0.545	 -9.760	 -0.004	  0.002	  0.000	 30.700	 99.077	  0.890
70833	  0.626	  0.086	  0.504	  0.087	 -0.522	 -9.766	 -0.003	  0.003	  0.001	 30.700	 99.077	  0.890
70883	  0.629	  0.087	  0.500	  0.075	 -0.544	 -9.748	 -0.003	  0.001	 -0.000	 30.700	 99.084	  0.260
70933	  0.627	  0.089	  0.502	  0.093	 -0.536	 -9.724	 -0.004	  0.002	  0.001	 30.700	 99.088	 -0.100
70983	  0.630	  0.084	  0.501	  0.076	 -0.543	 -9.723	 -0.005	  0.003	  0.000	 30.700	 99.088	 -0.100
71033	  0.630	  0.084	  0.504	  0.074	 -0.528	 -9.757	 -0.002	  0.002	 -0.000	 30.700	 99.073	  1.251
71083	  0.631	  0.091	  0.504	  0.095	 -0.573	 -9.714	 -0.003	  0.004	 -0.000	 30.700	 99.088	 -0.100
71133	  0.629	  0.084	  0.506	  0.086	 -0.535	 -9.750	 -0.003	  0.002	  0.000	 30.700	 99.073	  1.251
71183	  0.631	  0.085	  0.501	  0.085	 -0.539	 -9.769	 -0.003	  0.002	  0.001	 30.700	 99.088	 -0.100
71233	  0.628	  0.084	  0.501	  0.079	 -0.551	 -9.767	 -0.004	  0.001	  0.001	 30.700	 99.088	 -0.100
71283	  0.631	  0.083	  0.503	  0.091	 -0.523	 -9.749	 -0.003	  0.003	  0.000	 30.700	 99.084	  0.260
71333	  0.631	  0.086	  0.504	  0.078	 -0.522	 -9.734	 -0.004	  0.001	  0.000	 30.700	 99.084	  0.260
71383	  0.631	  0.085	  0.501	  0.083	 -0.546	 -9.751	 -0.004	  0.003	  0.000	 30.700	 99.088	 -0.100
71433	  0.631	  0.084	  0.500	  0.076	 -0.530	 -9.716	 -0.004	  0.002	  0.001	 30.700	 99.088	 -0.100
71483	  0.630	  0.090	  0.502	  0.105	 -0.543	 -9.779	 -0.003	  0.002	 -0.001	 30.700	 99.088	 -0.100
71533	  0.628	  0.085	  0.495	  0.066	 -0.513	 -9.737	 -0.003	  0.002	 -0.000	 30.700	 99.088	 -0.100
71583	  0.630	  0.083	  0.502	  0.079	 -0.547	 -9.761	 -0.004	  0.002	  0.001	 30.700	 99.092	 -0.461
71633	  0.630	  0.088	  0.498	  0.085	 -0.499	 -9.725	 -0.002	  0.002	  0.001	 30.700	 99.088	 -0.100
71683	  0.629	  0.085	  0.507	  0.095	 -0.560	 -9.749	 -0.002	  0.002	  0.000	 30.700	 99.073	  1.251
71733	  0.631	  0.090	  0.506	  0.094	 -0.530	 -9.770	 -0.004	  0.002	  0.001	 30.700	 99.077	  0.890
71783	  0.629	  0.083	  0.501	  0.070	 -0.517	 -9.748	 -0.004	  0.003	  0.001	 30.700	 99.088	 -0.100
71833	  0.630	  0.083	  0.502	  0.078	 -0.545	 -9.764	 -0.004	  0.002	  0.000	 30.700	 99.100	 -1.181
71883	  0.629	  0.086	  0.503	  0.090	 -0.543	 -9.757	 -0.003	  0.003	 -0.000	 30.700	 99.088	 -0.100
71933	  0.629	  0.083	  0.501	  0.070	 -0.529	 -9.771	 -0.004	  0.003	  0.001	 30.700	 99.088	 -0.100
71983	  0.629	  0.085	  0.502	  0.047	 -0.543	 -9.769	 -0.003	  0.002	  0.000	 30.700	 99.088	 -0.100
72034	  0.629	  0.086	  0.499	  0.097	 -0.542	 -9.756	 -0.004	  0.001	  0.001	 30.700	 99.077	  0.890
72083	  0.628	  0.087	  0.500	  0.073	 -0.542	 -9.773	 -0.003	  0.003	  0.000	 30.700	 99.077	  0.890
72133	  0.630	  0.085	  0.503	  0.084	 -0.547	 -9.741	 -0.004	  0.002	  0.001	 30.700	 99.077	  0.890
72183	  0.628	  0.086	  0.502	  0.087	 -0.554	 -9.759	 -0.002	  0.003	 -0.000	 30.700	 99.084	  0.260
72233	  0.628	  0.082	  0.500	  0.074	 -0.543	 -9.757	 -0.003	  0.003	 -0.001	 30.700	 99.088	 -0.100
72283	  0.629	  0.079	  0.496	  0.064	 -0.541	 -9.722	 -0.004	  0.002	 -0.000	 30.700	 99.077	  0.890
72333	  0.631	  0.083	  0.504	  0.092	 -0.540	 -9.713	 -0.004	  0.002	  0.001	 30.700	 99.077	  0.890
72383	  0.629	  0.081	  0.501	  0.068	 -0.513	 -9.763	 -0.003	  0.002	  0.002	 30.700	 99.077	  0.890
72433	  0.631	  0.088	  0.502	  0.074	 -0.547	 -9.730	 -0.004	  0.002	 -0.000	 30.700	 99.088	 -0.100
72483	  0.631	  0.087	  0.500	  0.083	 -0.528	 -9.733	 -0.004	  0.002	 -0.000	 30.700	 99.088	 -0.100
72533	  0.631	  0.087	  0.502	  0.081	 -0.527	 -9.732	 -0.003	  0.002	  0.001	 30.700	 99.092	 -0.461
72583	  0.630	  0.084	  0.503	  0.111	 -0.548	 -9.792	 -0.004	  0.002	  0.000	 30.700	 99.088	 -0.100
72633	  0.630	  0.085	  0.502	  0.060	 -0.542	 -9.733	 -0.003	  0.002	  0.000	 30.700	 99.088	 -0.100
72684	  0.629	  0.085	  0.502	  0.078	 -0.537	 -9.792	 -0.004	  0.002	  0.001	 30.700	 99.092	 -0.461
72733	  0.629	  0.083	  0.500	  0.092	 -0.547	 -9.720	 -0.003	  0.003	  0.001	 30.700	 99.077	  0.890
72784	  0.632	  0.083	  0.499	  0.096	 -0.537	 -9.761	 -0.004	  0.001	 -0.000	 30.700	 99.077	  0.890
72834	  0.631	  0.083	  0.502	  0.087	 -0.533	 -9.742	 -0.004	  0.002	  0.001	 30.700	 99.088	 -0.100
72884	  0.631	  0.086	  0.502	  0.086	 -0.552	 -9.745	 -0.003	  0.002	  0.001	 30.700	 99.077	  0.890
72934	  0.629	  0.084	  0.499	  0.099	 -0.530	 -9.745	 -0.003	  0.001	 -0.000	 30.700	 99.088	 -0.100
72984	  0.629	  0.084	  0.500	  0.075	 -0.548	 -9.749	 -0.003	  0.003	  0.001	 30.700	 99.077	  0.890
73034	  0.629	  0.087	  0.502	  0.087	 -0.542	 -9.742	 -0.004	  0.002	 -0.001	 30.700	 99.088	 -0.100
73084	  0.628	  0.088	  0.502	  0.094	 -0.535	 -9.772	 -0.003	  0.002	  0.001	 30.700	 99.077	  0.890
73134	  0.630	  0.087	  0.502	  0.083	 -0.538	 -9.764	 -0.004	  0.002	  0.001	 30.700	 99.077	  0.890
73184	  0.626	  0.085	  0.502	  0.080	 -0.530	 -9.743	 -0.002	  0.002	  0.001	 30.700	 99.077	  0.890
73234	  0.628	  0.089	  0.505	  0.074	 -0.547	 -9.741	 -0.005	  0.003	  0.000	 30.700	 99.077	  0.890
73284	  0.630	  0.082	  0.503	  0.072	 -0.518	 -9.756	 -0.002	  0.003	  0.002	 30.700	 99.077	  0.890
73334	  0.630	  0.082	  0.499	  0.099	 -0.527	 -9.720	 -0.003	  0.002	  0.001	 30.700	 99.088	 -0.100
73384	  0.629	  0.089	  0.504	  0.096	 -0.552	 -9.738	 -0.002	  0.001	  0.000	 30.700	 99.081	  0.530
73434	  0.631	  0.085	  0.500	  0.060	 -0.544	 -9.746	 -0.003	  0.002	  0.000	 30.700	 99.081	  0.530
73484	  0.628	  0.085	  0.503	  0.098	 -0.549	 -9.753	 -0.004	  0.003	  0.000	 30.700	 99.088	 -0.100
73534	  0.628	  0.083	  0.499	  0.072	 -0.543	 -9.754	 -0.003	  0.003	 -0.001	 30.700	 99.088	 -0.100
73584	  0.629	  0.085	  0.501	  0.078	 -0.539	 -9.764	 -0.004	  0.002	  0.000	 30.700	 99.088	 -0.100
73634	  0.629	  0.092	  0.504	  0.079	 -0.521	 -9.776	 -0.004	  0.001	  0.001	 30.700	 99.088	 -0.100
73684	  0.631	  0.085	  0.502	  0.074	 -0.521	 -9.769	 -0.004	  0.002	  0.001	 30.700	 99.077	  0.890
73734	  0.629	  0.085	  0.499	  0.096	 -0.548	 -9.754	 -0.004	  0.003	  0.000	 30.700	 99.088	 -0.100
73784	  0.630	  0.084	  0.501	  0.082	 -0.529	 -9.753	 -0.004	  0.001	 -0.000	 30.700	 99.088	 -0.100
73834	  0.628	  0.084	  0.504	  0.089	 -0.531	 -9.787	 -0.003	  0.002	  0.000	 30.700	 99.088	 -0.100
73884	  0.629	  0.085	  0.500	  0.117	 -0.556	 -9.767	 -0.003	  0.002	 -0.001	 30.700	 99.077	  0.890
73934	  0.630	  0.086	  0.502	  0.066	 -0.512	 -9.757	 -0.003	  0.001	  0.001	 30.700	 99.077	  0.890
73984	  0.631	  0.083	  0.501	  0.082	 -0.543	 -9.775	 -0.004	  0.001	  0.001	 30.700	 99.077	  0.890
74034	  0.631	  0.089	  0.503	  0.088	 -0.541	 -9.747	 -0.004	  0.001	  0.000	 30.700	 99.088	 -0.100
74084	  0.629	  0.089	  0.500	  0.050	 -0.530	 -9.752	 -0.004	  0.003	  0.001	 30.700	 99.088	 -0.100
74134	  0.630	  0.085	  0.500	  0.089	 -0.551	 -9.738	 -0.004	  0.002	  0.001	 30.700	 99.081	  0.530
74184	  0.631	  0.084	  0.502	  0.076	 -0.545	 -9.736	 -0.003	  0.004	  0.000	 30.700	 99.077	  0.890
74234	  0.631	  0.083	  0.500	  0.076	 -0.538	 -9.746	 -0.002	  0.003	  0.000	 30.700	 99.077	  0.890
74284	  0.629	  0.082	  0.503	  0.065	 -0.538	 -9.718	 -0.004	  0.003	  0.001	 30.700	 99.077	  0.890
74334	  0.631	  0.084	  0.503	  0.091	 -0.543	 -9.784	 -0.003	  0.000	 -0.000	 30.700	 99.092	 -0.461
74384	  0.630	  0.083	  0.500	  0.078	 -0.554	 -9.753	 -0.004	  0.003	  0.000	 30.700	 99.081	  0.530
74434	  0.631	  0.088	  0.502	  0.087	 -0.541	 -9.737	 -0.003	  0.004	 -0.000	 30.700	 99.081	  0.530
74484	  0.628	  0.086	  0.503	  0.081	 -0.537	 -9.763	 -0.004	  0.001	  0.001	 30.700	 99.092	 -0.461
74534	  0.629	  0.086	  0.500	  0.086	 -0.557	 -9.745	 -0.004	  0.004	 -0.000	 30.700	 99.077	  0.890
74584	  0.629	  0.082	  0.501	  0.074	 -0.563	 -9.764	 -0.002	  0.002	 -0.000	 30.700	 99.066	  1.881
74634	  0.628	  0.085	  0.501	  0.070	 -0.538	 -9.754	 -0.002	  0.003	 -0.000	 30.700	 99.088	 -0.100
74684	  0.630	  0.084	  0.501	  0.077	 -0.546	 -9.734	 -0.004	  0.001	 -0.001	 30.700	 99.077	  0.890
74734	  0.628	  0.082	  0.498	  0.092	 -0.527	 -9.739	 -0.003	  0.001	 -0.000	 30.700	 99.088	 -0.100
74784	  0.628	  0.084	  0.499	  0.097	 -0.511	 -9.772	 -0.004	  0.001	  0.000	 30.700	 99.088	 -0.100
74834	  0.629	  0.085	  0.496	  0.097	 -0.513	 -9.732	 -0.003	  0.003	  0.001	 30.700	 99.077	  0.890
74884	  0.629	  0.087	  0.499	  0.077	 -0.537	 -9.777	 -0.003	  0.002	  0.000	 30.700	 99.081	  0.530
74934	  0.628	  0.087	  0.500	  0.074	 -0.554	 -9.769	 -0.003	  0.002	  0.001	 30.700	 99.077	  0.890
74984	  0.628	  0.082	  0.501	  0.087	 -0.537	 -9.730	 -0.003	  0.004	 -0.000	 30.700	 99.081	  0.530
75034	  0.628	  0.085	  0.501	  0.098	 -0.544	 -9.732	 -0.003	  0.002	  0.001	 30.700	 99.081	  0.530
75084	  0.629	  0.087	  0.503	  0.078	 -0.523	 -9.784	 -0.004	  0.004	  0.000	 30.700	 99.066	  1.881
75134	  0.629	  0.084	  0.501	  0.086	 -0.540	 -9.764	 -0.003	  0.003	  0.001	 30.700	 99.092	 -0.461
75184	  0.630	  0.088	  0.499	  0.101	 -0.519	 -9.759	 -0.004	  0.002	  0.001	 30.700	 99.077	  0.890
75234	  0.629	  0.087	  0.500	  0.099	 -0.525	 -9.722	 -0.003	  0.002	  0.001	 30.700	 99.092	 -0.461
75284	  0.629	  0.088	  0.501	  0.092	 -0.547	 -9.752	 -0.002	  0.002	 -0.000	 30.700	 99.088	 -0.100
75334	  0.628	  0.082	  0.500	  0.095	 -0.513	 -9.735	 -0.003	  0.003	  0.000	 30.700	 99.092	 -0.461
75384	  0.626	  0.083	  0.504	  0.074	 -0.533	 -9.771	 -0.004	  0.001	  0.001	 30.700	 99.077	  0.890
75433	  0.630	  0.086	  0.502	  0.080	 -0.511	 -9.586	 -0.002	  0.004	  0.001	 30.700	 99.081	  0.530
75484	  0.629	  0.085	  0.501	 -0.778	  0.256	 -9.948	 -0.014	  0.007	  0.096	 30.700	 99.077	  0.890
75534	  0.629	  0.083	  0.501	  0.122	 -0.732	 -9.730	 -0.008	  0.007	  0.071	 30.700	 99.092	 -0.461
75584	  0.629	  0.085	  0.499	  0.127	 -0.516	 -9.740	 -0.003	  0.003	  0.001	 30.700	 99.077	  0.890
75633	  0.629	  0.083	  0.500	  0.086	 -0.542	 -9.707	 -0.003	  0.002	 -0.002	 30.700	 99.081	  0.530
75683	  0.628	  0.082	  0.499	  0.086	 -0.530	 -9.732	 -0.005	  0.002	  0.003	 30.700	 99.092	 -0.461
75733	  0.629	  0.083	  0.499	  0.069	 -0.548	 -9.708	 -0.004	  0.004	  0.001	 30.700	 99.092	 -0.461
75784	  0.631	  0.084	  0.502	  0.069	 -0.512	 -9.742	 -0.005	  0.002	 -0.000	 30.700	 99.081	  0.530
75834	  0.628	  0.085	  0.493	  0.108	 -0.523	 -9.744	 -0.004	  0.002	  0.000	 30.700	 99.081	  0.530
75884	  0.630	  0.081	  0.499	  0.069	 -0.552	 -9.756	 -0.004	  0.002	 -0.000	 30.700	 99.077	  0.890
75934	  0.629	  0.080	  0.501	  0.082	 -0.528	 -9.748	 -0.003	  0.002	  0.000	 30.700	 99.100	 -1.181
75983	  0.628	  0.079	  0.500	  0.092	 -0.543	 -9.769	 -0.003	  0.002	 -0.000	 30.700	 99.092	 -0.461
76034	  0.628	  0.088	  0.498	  0.077	 -0.552	 -9.780	 -0.003	  0.003	  0.001	 30.700	 99.081	  0.530
76083	  0.627	  0.079	  0.500	  0.062	 -0.528	 -9.773	 -0.004	  0.003	  0.001	 30.700	 99.081	  0.530
76134	  0.628	  0.082	  0.495	  0.099	 -0.537	 -9.751	 -0.002	  0.001	 -0.000	 30.700	 99.081	  0.530
76184	  0.629	  0.085	  0.496	  0.097	 -0.560	 -9.771	 -0.004	  0.003	 -0.000	 30.700	 99.081	  0.530
76234	  0.629	  0.084	  0.496	  0.103	 -0.532	 -9.747	 -0.003	  0.003	 -0.000	 30.700	 99.081	  0.530
76283	  0.629	  0.089	  0.496	  0.069	 -0.539	 -9.736	 -0.002	  0.002	 -0.001	 30.700	 99.088	 -0.100
76333	  0.629	  0.086	  0.493	  0.085	 -0.535	 -9.725	 -0.004	  0.003	  0.001	 30.700	 99.092	 -0.461
76383	  0.625	  0.085	  0.496	  0.091	 -0.530	 -9.774	 -0.003	  0.003	  0.001	 30.700	 99.081	  0.530
76433	  0.627	  0.088	  0.498	  0.073	 -0.491	 -9.765	 -0.003	  0.002	  0.003	 30.700	 99.081	  0.530
76483	  0.624	  0.085	  0.496	  0.054	 -0.555	 -9.720	 -0.004	  0.001	  0.015	 30.700	 99.104	 -1.542
76533	  0.627	  0.086	  0.494	  0.099	 -0.532	 -9.760	 -0.002	  0.002	  0.003	 30.700	 99.081	  0.530
76583	  0.625	  0.084	  0.496	  0.054	 -0.526	 -9.726	 -0.002	  0.002	  0.000	 30.700	 99.081	  0.530
76633	  0.624	  0.085	  0.492	  0.108	 -0.541	 -9.702	 -0.004	  0.001	  0.001	 30.700	 99.092	 -0.461
76683	  0.623	  0.084	  0.495	  0.090	 -0.534	 -9.754	 -0.002	  0.003	 -0.000	 30.700	 99.088	 -0.100
76733	  0.624	  0.084	  0.496	  0.069	 -0.537	 -9.782	 -0.003	  0.003	  0.001	 30.700	 99.077	  0.890
76783	  0.626	  0.083	  0.490	  0.082	 -0.568	 -9.781	 -0.004	  0.002	  0.000	 30.700	 99.092	 -0.461
76834	  0.626	  0.084	  0.498	  0.090	 -0.542	 -9.762	 -0.004	  0.003	 -0.001	 30.700	 99.081	  0.530
76883	  0.627	  0.089	  0.495	  0.086	 -0.537	 -9.746	 -0.003	  0.003	  0.000	 30.700	 99.092	 -0.461
76933	  0.625	  0.085	  0.493	  0.060	 -0.559	 -9.757	 -0.004	  0.003	 -0.000	 30.700	 99.081	  0.530
76983	  0.626	  0.088	  0.496	  0.088	 -0.567	 -9.753	 -0.004	  0.001	  0.000	 30.700	 99.081	  0.530
77033	  0.625	  0.082	  0.495	  0.090	 -0.533	 -9.753	 -0.005	  0.003	  0.001	 30.700	 99.081	  0.530
77083	  0.624	  0.082	  0.496	  0.071	 -0.548	 -9.718	 -0.004	  0.002	  0.001	 30.700	 99.081	  0.530
77133	  0.623	  0.085	  0.496	  0.092	 -0.539	 -9.754	 -0.003	  0.002	 -0.000	 30.700	 99.081	  0.530
77183	  0.625	  0.081	  0.496	  0.076	 -0.526	 -9.718	 -0.003	  0.003	 -0.000	 30.700	 99.081	  0.530
77233	  0.627	  0.087	  0.495	  0.089	 -0.535	 -9.745	 -0.003	  0.001	  0.001	 30.700	 99.081	  0.530
77283	  0.626	  0.086	  0.501	  0.083	 -0.540	 -9.719	 -0.003	  0.002	  0.000	 30.700	 99.081	  0.530
77333	  0.626	  0.083	  0.499	  0.081	 -0.554	 -9.768	 -0.004	  0.002	  0.001	 30.700	 99.092	 -0.461
77383	  0.623	  0.080	  0.493	  0.074	 -0.539	 -9.739	 -0.005	  0.003	 -0.000	 30.700	 99.092	 -0.461
77433	  0.621	  0.083	  0.491	  0.096	 -0.544	 -9.728	 -0.004	  0.003	 -0.000	 30.700	 99.092	 -0.461
77483	  0.622	  0.082	  0.501	  0.100	 -0.527	 -9.759	 -0.004	  0.002	 -0.001	 30.700	 99.081	  0.530
77533	  0.622	  0.091	  0.496	  0.089	 -0.546	 -9.765	 -0.004	  0.003	  0.000	 30.700	 99.081	  0.530
77583	  0.622	  0.083	  0.495	  0.086	 -0.553	 -9.753	 -0.003	  0.002	  0.000	 30.700	 99.070	  1.521
77633	  0.621	  0.083	  0.497	  0.088	 -0.541	 -9.774	 -0.004	  0.003	 -0.001	 30.700	 99.081	  0.530
77683	  0.623	  0.081	  0.496	  0.104	 -0.506	 -9.758	 -0.003	  0.002	  0.000	 30.700	 99.081	  0.530
77733	  0.625	  0.081	  0.491	  0.074	 -0.553	 -9.763	 -0.004	  0.002	  0.001	 30.700	 99.081	  0.530
77783	  0.629	  0.087	  0.498	  0.038	 -0.559	 -9.769	 -0.005	  0.003	  0.016	 30.700	 99.092	 -0.461
77834	  0.629	  0.086	  0.498	  0.087	 -0.538	 -9.771	 -0.003	  0.001	  0.007	 30.700	 99.081	  0.530
77883	  0.624	  0.080	  0.495	  0.124	 -0.531	 -9.746	 -0.003	  0.001	  0.004	 30.700	 99.081	  0.530
77934	  0.626	  0.079	  0.494	  0.133	 -0.576	 -9.737	 -0.004	 -0.001	  0.007	 30.700	 99.092	 -0.461
77983	  0.626	  0.081	  0.492	  0.039	 -0.549	 -9.743	 -0.002	  0.004	  0.012	 30.700	 99.081	  0.530
78033	  0.623	  0.078	  0.496	  0.144	 -0.547	 -9.740	 -0.004	  0.005	  0.012	 30.700	 99.081	  0.530
78083	  0.626	  0.078	  0.493	  0.116	 -0.557	 -9.729	 -0.003	  0.002	  0.023	 30.700	 99.081	  0.530
78133	  0.623	  0.078	  0.494	  0.096	 -0.511	 -9.742	 -0.002	  0.001	  0.016	 30.700	 99.081	  0.530
78183	  0.625	  0.078	  0.493	  0.112	 -0.525	 -9.747	 -0.004	  0.002	  0.010	 30.700	 99.092	 -0.461
78233	  0.623	  0.074	  0.495	  0.134	 -0.575	 -9.749	 -0.005	  0.003	  0.006	 30.700	 99.074	  1.161
78283	  0.622	  0.080	  0.494	  0.084	 -0.528	 -9.772	 -0.004	  0.002	  0.002	 30.700	 99.081	  0.530
78334	  0.625	  0.077	  0.493	  0.088	 -0.553	 -9.762	 -0.004	  0.002	  0.002	 30.700	 99.070	  1.521
78384	  0.624	  0.078	  0.496	  0.009	 -0.534	 -9.747	 -0.004	  0.005	  0.015	 30.700	 99.081	  0.530
78434	  0.626	  0.085	  0.494	  0.078	 -0.550	 -9.738	 -0.004	  0.004	  0.021	 30.700	 99.081	  0.530
78484	  0.623	  0.074	  0.496	  0.058	 -0.517	 -9.748	 -0.003	  0.003	  0.012	 30.700	 99.081	  0.530
78534	  0.623	  0.076	  0.495	  0.113	 -0.525	 -9.749	 -0.003	  0.002	  0.004	 30.700	 99.092	 -0.461
78584	  0.626	  0.078	  0.493	  0.087	 -0.537	 -9.751	 -0.003	  0.002	  0.001	 30.700	 99.081	  0.530
78634	  0.624	  0.082	  0.492	  0.073	 -0.532	 -9.755	 -0.004	  0.002	  0.001	 30.700	 99.081	  0.530
78684	  0.625	  0.072	  0.493	  0.102	 -0.539	 -9.784	 -0.003	  0.002	  0.001	 30.700	 99.081	  0.530
78734	  0.622	  0.076	  0.487	  0.105	 -0.544	 -9.758	 -0.004	  0.002	  0.000	 30.700	 99.081	  0.530
78784	  0.624	  0.075	  0.492	  0.079	 -0.515	 -9.760	 -0.002	  0.001	  0.000	 30.700	 99.081	  0.530
78834	  0.623	  0.082	  0.494	  0.070	 -0.530	 -9.740	 -0.003	  0.002	  0.000	 30.700	 99.081	  0.530
78884	  0.622	  0.078	  0.492	  0.086	 -0.517	 -9.739	 -0.004	  0.003	  0.009	 30.700	 99.081	  0.530
78934	  0.622	  0.075	  0.491	  0.087	 -0.545	 -9.747	 -0.003	  0.004	  0.009	 30.700	 99.081	  0.530
78984	  0.622	  0.081	  0.495	  0.055	 -0.520	 -9.764	 -0.002	  0.005	  0.003	 30.700	 99.081	  0.530
79034	  0.621	  0.077	  0.488	  0.109	 -0.514	 -9.770	 -0.004	  0.004	  0.006	 30.700	 99.081	  0.530
79084	  0.621	  0.077	  0.495	  0.080	 -0.542	 -9.786	 -0.004	  0.001	  0.001	 30.700	 99.081	  0.530
79134	  0.623	  0.076	  0.497	  0.097	 -0.523	 -9.729	 -0.004	  0.002	  0.000	 30.700	 99.081	  0.530
79184	  0.623	  0.075	  0.492	  0.084	 -0.508	 -9.737	 -0.004	  0.002	  0.002	 30.700	 99.070	  1.521
79234	  0.623	  0.078	  0.494	  0.096	 -0.544	 -9.754	 -0.004	 -0.000	  0.001	 30.700	 99.097	 -0.911
79284	  0.623	  0.079	  0.493	  0.104	 -0.540	 -9.733	 -0.004	  0.002	 -0.000	 30.700	 99.092	 -0.461
79334	  0.625	  0.081	  0.493	  0.081	 -0.545	 -9.755	 -0.002	  0.003	  0.000	 30.700	 99.081	  0.530
79384	  0.625	  0.073	  0.490	  0.093	 -0.532	 -9.744	 -0.003	  0.003	 -0.000	 30.700	 99.085	  0.170
79434	  0.623	  0.076	  0.496	  0.099	 -0.538	 -9.721	 -0.004	  0.003	  0.001	 30.700	 99.092	 -0.461
79484	  0.623	  0.079	  0.497	  0.075	 -0.530	 -9.769	 -0.003	  0.002	  0.001	 30.700	 99.085	  0.170
79534	  0.623	  0.081	  0.496	  0.084	 -0.520	 -9.752	 -0.003	  0.001	  0.001	 30.700	 99.081	  0.530
79584	  0.622	  0.077	  0.500	  0.067	 -0.545	 -9.786	 -0.003	  0.002	 -0.000	 30.700	 99.085	  0.170
79634	  0.623	  0.080	  0.497	  0.113	 -0.532	 -9.730	 -0.004	  0.002	 -0.000	 30.700	 99.092	 -0.461
79684	  0.623	  0.079	  0.497	  0.088	 -0.531	 -9.743	 -0.004	  0.002	  0.001	 30.700	 99.081	  0.530
79734	  0.623	  0.079	  0.495	  0.090	 -0.545	 -9.735	 -0.004	  0.002	  0.001	 30.700	 99.081	  0.530
79784	  0.626	  0.078	  0.496	  0.062	 -0.510	 -9.781	 -0.003	  0.004	  0.001	 30.700	 99.104	 -1.542
79834	  0.623	  0.077	  0.493	  0.094	 -0.506	 -9.720	 -0.003	  0.001	  0.000	 30.700	 99.085	  0.170
79884	  0.624	  0.076	  0.493	  0.095	 -0.533	 -9.772	 -0.003	 -0.000	  0.000	 30.700	 99.089	 -0.190
79934	  0.622	  0.076	  0.488	  0.061	 -0.545	 -9.746	 -0.002	  0.004	  0.003	 30.700	 99.081	  0.530
79984	  0.621	  0.077	  0.489	  0.091	 -0.581	 -9.760	 -0.004	  0.003	 -0.000	 30.700	 99.085	  0.170
80034	  0.623	  0.077	  0.487	  0.076	 -0.539	 -9.753	 -0.004	  0.001	  0.001	 30.700	 99.074	  1.161
80084	  0.623	  0.080	  0.492	  0.073	 -0.528	 -9.769	 -0.003	  0.002	  0.000	 30.700	 99.097	 -0.911
80134	  0.622	  0.075	  0.491	  0.084	 -0.517	 -9.741	 -0.003	  0.001	  0.001	 30.700	 99.085	  0.170
80184	  0.623	  0.080	  0.495	  0.092	 -0.545	 -9.764	 -0.003	  0.003	  0.001	 30.700	 99.097	 -0.911
80234	  0.622	  0.075	  0.494	  0.094	 -0.547	 -9.744	 -0.004	  0.003	  0.000	 30.700	 99.081	  0.530
80284	  0.622	  0.075	  0.489	  0.068	 -0.540	 -9.763	 -0.004	  0.003	 -0.000	 30.700	 99.081	  0.530
80334	  0.623	  0.073	  0.494	  0.093	 -0.529	 -9.734	 -0.003	  0.003	  0.001	 30.700	 99.097	 -0.911
80383	  0.622	  0.075	  0.494	  0.104	 -0.528	 -9.731	 -0.004	  0.002	  0.001	 30.700	 99.070	  1.521
80434	  0.622	  0.075	  0.489	  0.086	 -0.516	 -9.732	 -0.004	  0.002	 -0.000	 30.700	 99.085	  0.170
80483	  0.624	  0.080	  0.493	  0.094	 -0.524	 -9.721	 -0.004	  0.001	  0.000	 30.700	 99.074	  1.161
80533	  0.619	  0.075	  0.494	  0.081	 -0.540	 -9.733	 -0.003	  0.003	 -0.000	 30.700	 99.074	  1.161
80583	  0.623	  0.076	  0.491	  0.092	 -0.550	 -9.715	 -0.003	  0.002	  0.001	 30.700	 99.097	 -0.911
80633	  0.621	  0.075	  0.492	  0.076	 -0.531	 -9.718	 -0.004	  0.003	  0.001	 30.700	 99.085	  0.170
80683	  0.623	  0.076	  0.492	  0.100	 -0.529	 -9.711	 -0.003	  0.001	 -0.000	 30.700	 99.085	  0.170
80733	  0.623	  0.075	  0.493	  0.072	 -0.540	 -9.773	 -0.003	  0.001	  0.001	 30.700	 99.081	  0.530
80783	  0.623	  0.077	  0.489	  0.063	 -0.523	 -9.746	 -0.004	 -0.000	  0.000	 30.700	 99.085	  0.170
80833	  0.624	  0.079	  0.494	  0.093	 -0.536	 -9.743	 -0.004	  0.003	 -0.000	 30.700	 99.085	  0.170
80883	  0.623	  0.075	  0.492	  0.096	 -0.562	 -9.752	 -0.003	  0.003	  0.000	 30.700	 99.085	  0.170
80933	  0.623	  0.076	  0.493	  0.095	 -0.526	 -9.732	 -0.004	  0.002	 -0.000	 30.700	 99.085	  0.170
80983	  0.621	  0.078	  0.492	  0.114	 -0.532	 -9.753	 -0.004	  0.003	  0.001	 30.700	 99.085	  0.170
81033	  0.625	  0.076	  0.491	  0.067	 -0.541	 -9.749	 -0.003	  0.001	 -0.000	 30.700	 99.074	  1.161
81083	  0.623	  0.075	  0.493	  0.089	 -0.541	 -9.758	 -0.003	  0.002	  0.001	 30.700	 99.085	  0.170
81133	  0.623	  0.080	  0.491	  0.093	 -0.537	 -9.745	 -0.004	  0.003	  0.001	 30.700	 99.085	  0.170
81183	  0.621	  0.079	  0.493	  0.080	 -0.550	 -9.766	 -0.002	  0.003	 -0.001	 30.700	 99.085	  0.170
81233	  0.623	  0.075	  0.494	  0.113	 -0.550	 -9.752	 -0.003	  0.002	  0.000	 30.700	 99.085	  0.170
81284	  0.623	  0.075	  0.495	  0.085	 -0.552	 -9.753	 -0.003	  0.003	  0.000	 30.700	 99.074	  1.161
81334	  0.622	  0.076	  0.494	  0.081	 -0.525	 -9.723	 -0.005	  0.003	 -0.000	 30.700	 99.074	  1.161
81384	  0.623	  0.078	  0.492	  0.090	 -0.536	 -9.740	 -0.003	  0.001	 -0.001	 30.700	 99.092	 -0.461
81434	  0.623	  0.077	  0.496	  0.086	 -0.544	 -9.753	 -0.003	  0.002	  0.001	 30.700	 99.085	  0.170
81484	  0.622	  0.081	  0.491	  0.196	 -0.602	 -9.738	 -0.004	  0.002	  0.008	 30.700	 99.070	  1.521
81534	  0.623	  0.077	  0.493	  0.045	 -0.542	 -9.787	 -0.005	  0.003	  0.008	 30.700	 99.092	 -0.461
81584	  0.623	  0.075	  0.489	  0.107	 -0.578	 -9.741	 -0.003	  0.006	  0.005	 30.700	 99.097	 -0.911
81634	  0.622	  0.080	  0.494	  0.100	 -0.540	 -9.753	 -0.003	  0.007	  0.003	 30.700	 99.081	  0.530
81684	  0.620	  0.075	  0.491	  0.109	 -0.531	 -9.737	 -0.004	  0.003	  0.004	 30.700	 99.085	  0.170
81734	  0.623	  0.074	  0.494	  0.106	 -0.526	 -9.735	 -0.003	 -0.000	  0.004	 30.700	 99.081	  0.530
81783	  0.622	  0.079	  0.495	  0.082	 -0.551	 -9.748	 -0.003	  0.003	  0.001	 30.700	 99.081	  0.530
81833	  0.623	  0.077	  0.494	  0.088	 -0.543	 -9.764	 -0.002	  0.004	  0.000	 30.700	 99.085	  0.170
81883	  0.622	  0.074	  0.494	  0.077	 -0.543	 -9.770	 -0.003	  0.002	  0.001	 30.700	 99.085	  0.170
81933	  0.622	  0.074	  0.492	  0.083	 -0.560	 -9.731	 -0.003	  0.001	  0.001	 30.700	 99.085	  0.170
81983	  0.621	  0.074	  0.492	  0.102	 -0.541	 -9.735	 -0.004	  0.002	  0.001	 30.700	 99.085	  0.170
82033	  0.623	  0.075	  0.492	  0.101	 -0.530	 -9.730	 -0.004	  0.002	  0.000	 30.700	 99.081	  0.530
82084	  0.621	  0.075	  0.492	  0.089	 -0.546	 -9.757	 -0.003	  0.003	  0.000	 30.700	 99.074	  1.161
82133	  0.622	  0.077	  0.493	  0.097	 -0.539	 -9.761	 -0.003	  0.003	 -0.000	 30.700	 99.074	  1.161
82183	  0.622	  0.074	  0.493	  0.037	 -0.482	 -9.766	 -0.003	  0.004	  0.002	 30.700	 99.085	  0.170
82233	  0.623	  0.075	  0.492	  0.050	 -0.532	 -9.747	 -0.003	  0.008	  0.002	 30.700	 99.074	  1.161
82284	  0.623	  0.075	  0.496	  0.097	 -0.525	 -9.772	 -0.003	  0.005	  0.005	 30.700	 99.085	  0.170
82333	  0.622	  0.072	  0.494	  0.092	 -0.544	 -9.762	 -0.003	  0.002	  0.001	 30.700	 99.085	  0.170
82383	  0.622	  0.079	  0.494	  0.056	 -0.548	 -9.778	 -0.004	  0.004	  0.001	 30.700	 99.085	  0.170
82433	  0.621	  0.073	  0.493	  0.082	 -0.525	 -9.746	 -0.003	  0.002	  0.005	 30.700	 99.085	  0.170
82483	  0.623	  0.077	  0.494	  0.126	 -0.512	 -9.764	 -0.003	  0.002	  0.005	 30.700	 99.085	  0.170
82533	  0.621	  0.074	  0.492	  0.102	 -0.513	 -9.723	 -0.003	  0.002	  0.001	 30.700	 99.085	  0.170
82584	  0.621	  0.074	  0.493	  0.099	 -0.544	 -9.748	 -0.003	  0.002	 -0.000	 30.700	 99.074	  1.161
82633	  0.620	  0.075	  0.494	  0.093	 -0.541	 -9.729	 -0.003	  0.002	 -0.000	 30.700	 99.078	  0.800
82683	  0.621	  0.076	  0.491	  0.074	 -0.538	 -9.722	 -0.003	  0.003	 -0.001	 30.700	 99.085	  0.170
82733	  0.620	  0.075	  0.491	  0.104	 -0.530	 -9.764	 -0.004	  0.004	  0.000	 30.700	 99.085	  0.170
82783	  0.621	  0.080	  0.494	  0.061	 -0.505	 -9.771	 -0.004	  0.003	  0.001	 30.700	 99.085	  0.170
82833	  0.623	  0.075	  0.491	  0.077	 -0.532	 -9.766	 -0.002	  0.002	 -0.001	 30.700	 99.097	 -0.911
82883	  0.620	  0.079	  0.494	  0.073	 -0.520	 -9.767	 -0.004	  0.003	  0.000	 30.700	 99.074	  1.161
82933	  0.622	  0.076	  0.496	  0.106	 -0.557	 -9.724	 -0.003	  0.003	  0.000	 30.700	 99.085	  0.170
82983	  0.624	  0.075	  0.499	  0.098	 -0.551	 -9.799	 -0.004	 -0.001	  0.001	 30.700	 99.085	  0.170
83033	  0.622	  0.075	  0.498	  0.068	 -0.537	 -9.772	 -0.003	  0.004	  0.001	 30.700	 99.097	 -0.911
83083	  0.622	  0.076	  0.496	  0.093	 -0.522	 -9.765	 -0.003	  0.001	 -0.001	 30.700	 99.085	  0.170
83133	  0.623	  0.080	  0.497	  0.096	 -0.544	 -9.743	 -0.003	  0.001	  0.001	 30.700	 99.085	  0.170
83184	  0.620	  0.074	  0.498	  0.083	 -0.521	 -9.754	 -0.004	  0.003	  0.001	 30.700	 99.089	 -0.190
83233	  0.621	  0.078	  0.496	  0.080	 -0.543	 -9.739	 -0.003	  0.004	  0.001	 30.700	 99.085	  0.170
83283	  0.621	  0.078	  0.494	  0.120	 -0.537	 -9.763	 -0.004	  0.002	  0.001	 30.700	 99.085	  0.170
83333	  0.622	  0.075	  0.492	  0.073	 -0.539	 -9.788	 -0.004	  0.003	  0.000	 30.700	 99.089	 -0.190
83383	  0.623	  0.075	  0.494	  0.107	 -0.539	 -9.752	 -0.003	  0.003	  0.001	 30.700	 99.078	  0.800
83433	  0.624	  0.080	  0.495	  0.080	 -0.530	 -9.769	 -0.003	  0.001	  0.001	 30.700	 99.074	  1.161
83483	  0.621	  0.076	  0.497	  0.096	 -0.520	 -9.696	 -0.003	  0.003	 -0.001	 30.700	 99.085	  0.170
83533	  0.623	  0.079	  0.497	  0.096	 -0.538	 -9.741	 -0.003	  0.002	  0.001	 30.700	 99.085	  0.170
83583	  0.623	  0.074	  0.492	  0.080	 -0.531	 -9.720	 -0.004	  0.003	  0.000	 30.700	 99.085	  0.170
83633	  0.622	  0.077	  0.493	  0.087	 -0.538	 -9.750	 -0.004	  0.003	  0.000	 30.700	 99.074	  1.161
83684	  0.622	  0.074	  0.491	  0.074	 -0.530	 -9.763	 -0.002	  0.002	  0.002	 30.700	 99.074	  1.161
83734	  0.621	  0.073	  0.494	  0.077	 -0.538	 -9.740	 -0.003	  0.002	  0.001	 30.700	 99.085	  0.170
83783	  0.621	  0.079	  0.493	  0.074	 -0.524	 -9.740	 -0.003	  0.003	  0.002	 30.700	 99.085	  0.170
83834	  0.619	  0.073	  0.492	  0.120	 -0.513	 -9.732	 -0.003	  0.003	  0.000	 30.700	 99.085	  0.170
83883	  0.622	  0.077	  0.487	  0.068	 -0.546	 -9.751	 -0.004	  0.002	  0.000	 30.700	 99.074	  1.161
83934	  0.622	  0.073	  0.492	  0.082	 -0.526	 -9.721	 -0.004	  0.002	 -0.000	 30.700	 99.085	  0.170
83984	  0.619	  0.074	  0.491	  0.091	 -0.535	 -9.737	 -0.004	  0.004	 -0.000	 30.700	 99.085	  0.170
84034	  0.621	  0.072	  0.491	  0.085	 -0.557	 -9.714	 -0.003	  0.001	 -0.000	 30.700	 99.089	 -0.190
84084	  0.620	  0.080	  0.489	  0.085	 -0.532	 -9.753	 -0.002	  0.002	  0.001	 30.700	 99.085	  0.170
84134	  0.621	  0.074	  0.491	  0.079	 -0.548	 -9.748	 -0.003	  0.003	  0.000	 30.700	 99.078	  0.800
84184	  0.621	  0.076	  0.494	  0.094	 -0.528	 -9.755	 -0.003	  0.001	  0.000	 30.700	 99.074	  1.161
84234	  0.621	  0.078	  0.493	  0.084	 -0.542	 -9.738	 -0.003	  0.002	  0.000	 30.700	 99.085	  0.170
84284	  0.621	  0.075	  0.494	  0.091	 -0.539	 -9.699	 -0.004	  0.003	  0.000	 30.700	 99.074	  1.161
84334	  0.621	  0.077	  0.494	  0.086	 -0.537	 -9.771	 -0.003	  0.003	  0.001	 30.700	 99.089	 -0.190
84384	  0.621	  0.078	  0.495	  0.092	 -0.539	 -9.752	 -0.002	  0.002	  0.001	 30.700	 99.085	  0.170
84434	  0.623	  0.079	  0.492	  0.102	 -0.571	 -9.750	 -0.004	  0.002	 -0.001	 30.700	 99.074	  1.161
84484	  0.622	  0.075	  0.491	  0.089	 -0.542	 -9.743	 -0.003	  0.002	  0.001	 30.700	 99.085	  0.170
84534	  0.619	  0.079	  0.493	  0.111	 -0.535	 -9.767	 -0.004	  0.002	  0.000	 30.700	 99.074	  1.161
84584	  0.622	  0.078	  0.491	  0.096	 -0.520	 -9.753	 -0.003	  0.002	 -0.001	 30.700	 99.085	  0.170
84634	  0.623	  0.078	  0.489	  0.082	 -0.524	 -9.768	 -0.004	  0.002	  0.000	 30.700	 99.085	  0.170
84684	  0.621	  0.078	  0.492	  0.086	 -0.518	 -9.761	 -0.003	  0.002	  0.002	 30.700	 99.085	  0.170
84734	  0.621	  0.080	  0.492	  0.098	 -0.528	 -9.765	 -0.004	  0.003	 -0.000	 30.700	 99.085	  0.170
84784	  0.620	  0.077	  0.496	  0.094	 -0.518	 -9.732	 -0.003	  0.001	  0.001	 30.700	 99.085	  0.170
84834	  0.623	  0.075	  0.491	  0.069	 -0.531	 -9.772	 -0.004	  0.001	  0.001	 30.700	 99.074	  1.161
84884	  0.622	  0.078	  0.491	  0.088	 -0.543	 -9.714	 -0.004	  0.004	  0.000	 30.700	 99.074	  1.161
84934	  0.622	  0.077	  0.493	  0.088	 -0.523	 -9.753	 -0.004	  0.003	 -0.000	 30.700	 99.074	  1.161
84984	  0.622	  0.071	  0.491	  0.098	 -0.563	 -9.776	 -0.003	  0.002	 -0.000	 30.700	 99.078	  0.800
85034	  0.622	  0.070	  0.492	  0.081	 -0.537	 -9.724	 -0.002	  0.003	  0.000	 30.700	 99.074	  1.161
85084	  0.623	  0.073	  0.494	  0.095	 -0.523	 -9.740	 -0.004	  0.002	  0.000	 30.700	 99.078	  0.800
85134	  0.619	  0.076	  0.487	  0.103	 -0.524	 -9.740	 -0.003	  0.003	  0.001	 30.700	 99.078	  0.800
85184	  0.621	  0.075	  0.491	  0.088	 -0.520	 -9.761	 -0.003	  0.002	  0.000	 30.700	 99.085	  0.170
85234	  0.621	  0.074	  0.491	  0.079	 -0.546	 -9.750	 -0.003	  0.001	 -0.000	 30.700	 99.074	  1.161
85284	  0.623	  0.073	  0.492	  0.078	 -0.528	 -9.692	 -0.003	  0.002	  0.000	 30.700	 99.089	 -0.190
85334	  0.621	  0.071	  0.492	  0.095	 -0.519	 -9.788	 -0.005	  0.003	  0.001	 30.700	 99.074	  1.161
85384	  0.621	  0.080	  0.488	  0.097	 -0.525	 -9.766	 -0.003	  0.003	  0.000	 30.700	 99.078	  0.800
85434	  0.621	  0.077	  0.494	  0.117	 -0.532	 -9.729	 -0.003	  0.001	 -0.000	 30.700	 99.089	 -0.190
85484	  0.622	  0.073	  0.489	  0.077	 -0.516	 -9.799	 -0.003	  0.004	 -0.000	 30.700	 99.089	 -0.190
85534	  0.623	  0.081	  0.492	  0.085	 -0.526	 -9.764	 -0.003	  0.002	  0.000	 30.700	 99.078	  0.800
85584	  0.620	  0.073	  0.493	  0.091	 -0.523	 -9.716	 -0.004	  0.004	  0.002	 30.700	 99.089	 -0.190
85634	  0.620	  0.074	  0.495	  0.083	 -0.530	 -9.757	 -0.002	  0.001	  0.001	 30.700	 99.078	  0.800
85684	  0.623	  0.077	  0.491	  0.101	 -0.515	 -9.741	 -0.004	  0.001	  0.000	 30.700	 99.089	 -0.190
85734	  0.622	  0.073	  0.492	  0.102	 -0.564	 -9.747	 -0.003	  0.003	 -0.001	 30.700	 99.089	 -0.190
85784	  0.623	  0.075	  0.493	  0.106	 -0.522	 -9.706	 -0.004	  0.003	  0.001	 30.700	 99.078	  0.800
85834	  0.619	  0.078	  0.492	  0.084	 -0.525	 -9.720	 -0.004	  0.002	  0.000	 30.700	 99.089	 -0.190
85884	  0.623	  0.075	  0.487	  0.091	 -0.545	 -9.742	 -0.003	  0.002	 -0.000	 30.700	 99.078	  0.800
85934	  0.620	  0.075	  0.489	  0.097	 -0.548	 -9.744	 -0.003	  0.005	 -0.000	 30.700	 99.089	 -0.190
85984	  0.619	  0.073	  0.494	  0.086	 -0.545	 -9.760	 -0.003	  0.000	 -0.001	 30.700	 99.078	  0.800
86034	  0.623	  0.075	  0.491	  0.101	 -0.547	 -9.758	 -0.002	  0.001	  0.000	 30.700	 99.078	  0.800
86084	  0.623	  0.074	  0.492	  0.072	 -0.533	 -9.732	 -0.004	  0.003	 -0.000	 30.700	 99.089	 -0.190
86134	  0.623	  0.074	  0.497	  0.082	 -0.540	 -9.756	 -0.003	  0.000	  0.001	 30.700	 99.078	  0.800
86184	  0.620	  0.075	  0.494	  0.084	 -0.498	 -9.752	 -0.004	  0.001	  0.001	 30.700	 99.078	  0.800
86233	  0.623	  0.079	  0.492	  0.101	 -0.541	 -9.772	 -0.004	  0.004	 -0.001	 30.700	 99.078	  0.800
86283	  0.622	  0.077	  0.494	  0.102	 -0.539	 -9.756	 -0.003	  0.002	 -0.000	 30.700	 99.078	  0.800
86333	  0.621	  0.073	  0.489	  0.088	 -0.534	 -9.726	 -0.003	  0.003	 -0.000	 30.700	 99.089	 -0.190
86383	  0.620	  0.074	  0.488	  0.096	 -0.527	 -9.756	 -0.004	  0.003	  0.001	 30.700	 99.094	 -0.642
86433	  0.622	  0.075	  0.493	  0.081	 -0.529	 -9.787	 -0.004	  0.002	 -0.000	 30.700	 99.078	  0.800
86483	  0.621	  0.076	  0.492	  0.079	 -0.527	 -9.770	 -0.004	  0.003	  0.000	 30.700	 99.085	  0.170
