Time	 MagX	 MagY	 MagZ	 AccelX	 AccelY	 AccelZ	 Yaw	 Pitch	 Roll	 Temperature	 Pressure	 Altitude
15288	 -0.443	  0.433	  0.270	  9.664	 -0.709	 -1.236	 -0.004	  0.003	  0.001	 33.200	 99.122	 -99999.000
15338	 -0.443	  0.430	  0.266	  9.647	 -0.733	 -1.297	 -0.004	  0.003	  0.002	 33.200	 99.122	 -99999.000
15388	 -0.442	  0.424	  0.263	  9.691	 -0.705	 -1.261	 -0.005	  0.003	  0.000	 33.200	 99.122	 -99999.000
15438	 -0.442	  0.425	  0.269	  9.684	 -0.748	 -1.273	 -0.003	  0.003	  0.000	 33.200	 99.111	 -99999.000
15488	 -0.443	  0.433	  0.269	  9.669	 -0.746	 -1.245	 -0.002	  0.002	  0.001	 33.200	 99.122	 -99999.000
15538	 -0.444	  0.423	  0.270	  9.704	 -0.747	 -1.245	 -0.004	  0.003	 -0.001	 33.200	 99.118	 -99999.000
15588	 -0.442	  0.425	  0.266	  9.696	 -0.734	 -1.288	 -0.003	  0.003	  0.001	 33.200	 99.122	 -99999.000
15638	 -0.443	  0.425	  0.270	  9.667	 -0.758	 -1.227	 -0.005	  0.002	  0.001	 33.200	 99.122	 -99999.000
15688	 -0.444	  0.425	  0.265	  9.672	 -0.768	 -1.281	 -0.004	  0.002	  0.001	 33.200	 99.122	 -99999.000
15738	 -0.441	  0.426	  0.271	  9.677	 -0.730	 -1.298	 -0.003	  0.002	 -0.000	 33.200	 99.118	 -99999.000
15788	 -0.442	  0.427	  0.269	  9.681	 -0.735	 -1.256	 -0.004	  0.003	  0.001	 33.200	 99.118	 -99999.000
15838	 -0.442	  0.428	  0.264	  9.671	 -0.753	 -1.252	 -0.003	  0.003	  0.001	 33.200	 99.118	 -99999.000
15888	 -0.443	  0.430	  0.271	  9.680	 -0.750	 -1.292	 -0.004	  0.002	 -0.000	 33.200	 99.122	 -99999.000
15938	 -0.442	  0.425	  0.268	  9.674	 -0.733	 -1.272	 -0.003	  0.002	  0.001	 33.200	 99.118	 -99999.000
15988	 -0.443	  0.423	  0.271	  9.682	 -0.742	 -1.247	 -0.004	  0.002	  0.001	 33.200	 99.122	 -99999.000
16038	 -0.442	  0.427	  0.264	  9.680	 -0.738	 -1.269	 -0.004	  0.003	  0.000	 33.200	 99.122	 -99999.000
16088	 -0.441	  0.423	  0.266	  9.661	 -0.757	 -1.263	 -0.004	  0.003	  0.001	 33.200	 99.122	 -99999.000
16138	 -0.443	  0.431	  0.267	  9.687	 -0.744	 -1.264	 -0.004	  0.003	  0.000	 33.200	 99.111	 -99999.000
16188	 -0.443	  0.425	  0.269	  9.661	 -0.748	 -1.267	 -0.003	  0.002	  0.001	 33.200	 99.134	 -99999.000
16238	 -0.442	  0.426	  0.266	  9.671	 -0.748	 -1.255	 -0.003	  0.002	  0.001	 33.200	 99.122	 -99999.000
16288	 -0.442	  0.428	  0.270	  9.677	 -0.761	 -1.257	 -0.004	  0.003	  0.000	 33.200	 99.122	 -99999.000
16338	 -0.443	  0.428	  0.265	  9.678	 -0.770	 -1.289	 -0.004	  0.003	 -0.001	 33.200	 99.122	 -99999.000
16388	 -0.442	  0.426	  0.266	  9.680	 -0.750	 -1.249	 -0.004	  0.001	  0.001	 33.200	 99.107	 -99999.000
16438	 -0.443	  0.427	  0.270	  9.662	 -0.754	 -1.289	 -0.003	  0.003	 -0.001	 33.200	 99.122	 -99999.000
16488	 -0.443	  0.434	  0.265	  9.671	 -0.758	 -1.257	 -0.003	  0.003	 -0.000	 33.200	 99.134	 -99999.000
16538	 -0.443	  0.424	  0.268	  9.668	 -0.735	 -1.265	 -0.004	  0.002	  0.001	 33.200	 99.122	 -99999.000
16588	 -0.442	  0.428	  0.263	  9.684	 -0.767	 -1.269	 -0.002	  0.002	  0.001	 33.200	 99.122	 -99999.000
16638	 -0.442	  0.424	  0.270	  9.666	 -0.750	 -1.277	 -0.005	  0.003	  0.001	 33.200	 99.111	 -99999.000
16688	 -0.441	  0.429	  0.263	  9.680	 -0.749	 -1.256	 -0.003	  0.003	  0.001	 33.200	 99.122	 -99999.000
16738	 -0.441	  0.428	  0.271	  9.678	 -0.764	 -1.254	 -0.003	  0.003	 -0.001	 33.200	 99.122	 -99999.000
16788	 -0.442	  0.435	  0.266	  9.676	 -0.717	 -1.255	 -0.003	  0.004	 -0.000	 33.200	 99.122	 -99999.000
16838	 -0.444	  0.429	  0.262	  9.657	 -0.741	 -1.234	 -0.004	  0.003	  0.000	 33.200	 99.118	 -99999.000
16888	 -0.443	  0.427	  0.269	  9.670	 -0.741	 -1.294	 -0.004	  0.003	  0.001	 33.200	 99.134	 -99999.000
16938	 -0.442	  0.431	  0.265	  9.691	 -0.749	 -1.279	 -0.004	  0.002	  0.001	 33.200	 99.118	 -99999.000
16988	 -0.440	  0.426	  0.269	  9.665	 -0.739	 -1.269	 -0.004	  0.003	  0.001	 33.200	 99.122	 -99999.000
17038	 -0.443	  0.428	  0.265	  9.666	 -0.738	 -1.279	 -0.004	  0.003	  0.000	 33.200	 99.134	 -99999.000
17088	 -0.444	  0.425	  0.264	  9.679	 -0.741	 -1.234	 -0.004	  0.002	  0.000	 33.200	 99.122	 -99999.000
17138	 -0.441	  0.431	  0.269	  9.678	 -0.734	 -1.253	 -0.004	  0.003	  0.001	 33.200	 99.122	 -99999.000
17188	 -0.443	  0.430	  0.267	  9.671	 -0.750	 -1.242	 -0.002	  0.003	 -0.000	 33.200	 99.122	 -99999.000
17238	 -0.443	  0.425	  0.268	  9.674	 -0.735	 -1.283	 -0.004	  0.002	  0.000	 33.200	 99.130	 -99999.000
17288	 -0.441	  0.431	  0.268	  9.664	 -0.746	 -1.262	 -0.003	  0.001	  0.000	 33.200	 99.122	 -99999.000
17338	 -0.444	  0.423	  0.270	  9.678	 -0.763	 -1.302	 -0.002	  0.003	  0.000	 33.200	 99.122	 -99999.000
17388	 -0.444	  0.432	  0.267	  9.670	 -0.741	 -1.259	 -0.002	  0.002	  0.001	 33.200	 99.118	 -99999.000
17438	 -0.443	  0.424	  0.268	  9.675	 -0.740	 -1.243	 -0.006	  0.003	 -0.001	 33.200	 99.134	 -99999.000
17488	 -0.441	  0.429	  0.268	  9.673	 -0.764	 -1.274	 -0.003	  0.004	  0.001	 33.200	 99.122	 -99999.000
17538	 -0.441	  0.425	  0.263	  9.679	 -0.738	 -1.260	 -0.002	  0.002	  0.000	 33.200	 99.122	 -99999.000
17588	 -0.443	  0.426	  0.267	  9.679	 -0.728	 -1.279	 -0.004	  0.002	  0.000	 33.200	 99.118	 -99999.000
17638	 -0.443	  0.434	  0.267	  9.650	 -0.738	 -1.268	 -0.003	  0.003	 -0.000	 33.200	 99.130	 -99999.000
17688	 -0.443	  0.431	  0.272	  9.658	 -0.744	 -1.266	 -0.003	  0.005	  0.001	 33.200	 99.122	 -99999.000
17738	 -0.442	  0.428	  0.262	  9.683	 -0.733	 -1.251	 -0.003	  0.004	  0.001	 33.200	 99.118	 -99999.000
17788	 -0.443	  0.427	  0.267	  9.657	 -0.740	 -1.276	 -0.006	  0.002	  0.001	 33.200	 99.111	 -99999.000
17838	 -0.443	  0.426	  0.265	  9.661	 -0.738	 -1.249	 -0.003	  0.004	 -0.000	 33.200	 99.134	 -99999.000
17888	 -0.443	  0.427	  0.270	  9.665	 -0.743	 -1.272	 -0.002	  0.002	  0.001	 33.200	 99.111	 -99999.000
17938	 -0.441	  0.428	  0.265	  9.684	 -0.740	 -1.291	 -0.004	  0.003	  0.001	 33.200	 99.122	 -99999.000
17988	 -0.442	  0.428	  0.268	  9.685	 -0.742	 -1.280	 -0.003	  0.003	  0.001	 33.200	 99.122	 -99999.000
18038	 -0.442	  0.426	  0.268	  9.658	 -0.762	 -1.255	 -0.003	  0.003	 -0.002	 33.200	 99.130	 -99999.000
18088	 -0.442	  0.428	  0.268	  9.658	 -0.747	 -1.273	 -0.003	  0.003	  0.000	 33.200	 99.134	 -99999.000
18137	 -0.440	  0.429	  0.270	  9.661	 -0.733	 -1.272	 -0.002	  0.004	  0.001	 33.200	 99.118	 -99999.000
18187	 -0.442	  0.428	  0.271	  9.676	 -0.755	 -1.262	 -0.003	  0.003	  0.000	 33.200	 99.122	 -99999.000
18237	 -0.442	  0.426	  0.268	  9.665	 -0.751	 -1.258	 -0.003	  0.003	 -0.000	 33.200	 99.122	 -99999.000
18288	 -0.442	  0.424	  0.266	  9.652	 -0.764	 -1.259	 -0.005	  0.004	  0.000	 33.200	 99.122	 -99999.000
18338	 -0.446	  0.425	  0.264	  9.673	 -0.752	 -1.261	 -0.004	  0.002	 -0.001	 33.200	 99.122	 -99999.000
18387	 -0.442	  0.427	  0.268	  9.685	 -0.761	 -1.233	 -0.002	  0.003	  0.001	 33.200	 99.118	 -99999.000
18437	 -0.442	  0.429	  0.265	  9.676	 -0.742	 -1.295	 -0.004	  0.003	 -0.000	 33.200	 99.122	 -99999.000
18487	 -0.443	  0.425	  0.266	  9.648	 -0.742	 -1.234	 -0.003	  0.003	 -0.001	 33.200	 99.122	 -99999.000
18537	 -0.443	  0.425	  0.265	  9.676	 -0.749	 -1.259	 -0.003	  0.003	  0.001	 33.200	 99.122	 -99999.000
18587	 -0.443	  0.426	  0.270	  9.674	 -0.758	 -1.227	 -0.004	  0.002	  0.000	 33.200	 99.122	 -99999.000
18637	 -0.444	  0.426	  0.267	  9.688	 -0.741	 -1.275	 -0.004	  0.002	  0.000	 33.200	 99.134	 -99999.000
18687	 -0.443	  0.427	  0.264	  9.686	 -0.763	 -1.252	 -0.005	  0.002	  0.000	 33.200	 99.122	 -99999.000
18737	 -0.440	  0.429	  0.269	  9.691	 -0.732	 -1.269	 -0.003	  0.004	  0.001	 33.200	 99.122	 -99999.000
18787	 -0.442	  0.428	  0.264	  9.674	 -0.729	 -1.280	 -0.003	  0.004	  0.000	 33.200	 99.122	 -99999.000
18837	 -0.441	  0.425	  0.268	  9.688	 -0.759	 -1.240	 -0.003	  0.003	  0.000	 33.200	 99.118	 -99999.000
18887	 -0.443	  0.428	  0.270	  9.667	 -0.731	 -1.267	 -0.002	  0.001	 -0.001	 33.200	 99.134	 -99999.000
18937	 -0.443	  0.428	  0.269	  9.683	 -0.760	 -1.278	 -0.003	  0.001	 -0.000	 33.200	 99.122	 -99999.000
18987	 -0.443	  0.426	  0.264	  9.703	 -0.749	 -1.299	 -0.003	  0.002	  0.000	 33.200	 99.122	 -99999.000
19038	 -0.442	  0.426	  0.263	  9.673	 -0.758	 -1.241	 -0.004	  0.003	  0.000	 33.200	 99.122	 -99999.000
19087	 -0.442	  0.426	  0.263	  9.671	 -0.741	 -1.287	 -0.003	  0.003	  0.000	 33.200	 99.122	 -99999.000
19137	 -0.442	  0.430	  0.269	  9.690	 -0.740	 -1.240	 -0.004	  0.003	 -0.000	 33.200	 99.122	 -99999.000
19187	 -0.441	  0.427	  0.268	  9.687	 -0.751	 -1.300	 -0.004	  0.001	  0.001	 33.200	 99.134	 -99999.000
19238	 -0.440	  0.427	  0.265	  9.675	 -0.768	 -1.312	 -0.004	  0.003	  0.001	 33.200	 99.122	 -99999.000
19288	 -0.443	  0.424	  0.269	  9.657	 -0.717	 -1.257	 -0.004	  0.001	 -0.000	 33.200	 99.127	 -99999.000
19339	 -0.444	  0.429	  0.263	  9.645	 -0.754	 -1.265	 -0.005	  0.003	  0.000	 33.200	 99.122	 -99999.000
19388	 -0.441	  0.430	  0.268	  9.655	 -0.741	 -1.256	 -0.004	  0.003	  0.001	 33.200	 99.111	 -99999.000
19439	 -0.443	  0.429	  0.267	  9.680	 -0.741	 -1.252	 -0.004	  0.003	 -0.000	 33.200	 99.122	 -99999.000
19489	 -0.441	  0.430	  0.270	  9.653	 -0.735	 -1.245	 -0.004	  0.002	  0.001	 33.200	 99.107	 -99999.000
19539	 -0.444	  0.427	  0.264	  9.681	 -0.737	 -1.278	 -0.004	  0.003	 -0.000	 33.200	 99.111	 -99999.000
19589	 -0.442	  0.426	  0.268	  9.678	 -0.760	 -1.271	 -0.003	  0.002	  0.001	 33.200	 99.111	 -99999.000
19639	 -0.443	  0.424	  0.268	  9.653	 -0.728	 -1.289	 -0.004	  0.003	 -0.001	 33.200	 99.134	 -99999.000
19689	 -0.443	  0.425	  0.266	  9.672	 -0.741	 -1.251	 -0.004	  0.002	 -0.001	 33.200	 99.122	 -99999.000
19739	 -0.442	  0.423	  0.269	  9.678	 -0.747	 -1.254	 -0.003	  0.002	  0.002	 33.200	 99.122	 -99999.000
19789	 -0.443	  0.424	  0.264	  9.671	 -0.745	 -1.263	 -0.002	  0.002	 -0.000	 33.200	 99.122	 -99999.000
19839	 -0.441	  0.426	  0.268	  9.686	 -0.737	 -1.229	 -0.003	  0.001	  0.000	 33.200	 99.118	 -99999.000
19889	 -0.442	  0.424	  0.268	  9.676	 -0.740	 -1.266	 -0.003	  0.002	  0.000	 33.200	 99.127	 -99999.000
19939	 -0.441	  0.425	  0.266	  9.667	 -0.754	 -1.255	 -0.003	  0.003	  0.001	 33.200	 99.122	 -99999.000
19989	 -0.440	  0.429	  0.269	  9.665	 -0.739	 -1.292	 -0.004	  0.002	  0.000	 33.200	 99.130	 -99999.000
20039	 -0.442	  0.427	  0.262	  9.669	 -0.742	 -1.294	 -0.004	  0.002	  0.000	 33.200	 99.118	 -99999.000
20089	 -0.443	  0.425	  0.266	  9.663	 -0.764	 -1.260	 -0.002	  0.003	  0.001	 33.200	 99.122	 -99999.000
20138	 -0.444	  0.429	  0.263	  9.665	 -0.737	 -1.282	 -0.003	  0.003	  0.000	 33.200	 99.118	 -99999.000
20188	 -0.444	  0.425	  0.266	  9.659	 -0.740	 -1.301	 -0.004	  0.002	 -0.001	 33.200	 99.122	 -99999.000
20238	 -0.442	  0.425	  0.269	  9.659	 -0.769	 -1.246	 -0.003	  0.003	  0.000	 33.200	 99.122	 -99999.000
20288	 -0.441	  0.424	  0.270	  9.667	 -0.748	 -1.280	 -0.004	  0.003	  0.001	 33.200	 99.111	 -99999.000
20338	 -0.441	  0.424	  0.264	  9.678	 -0.747	 -1.267	 -0.004	  0.002	 -0.001	 33.200	 99.122	 -99999.000
20388	 -0.444	  0.426	  0.265	  9.676	 -0.741	 -1.274	 -0.003	  0.002	 -0.001	 33.200	 99.122	 -99999.000
20438	 -0.443	  0.423	  0.268	  9.698	 -0.755	 -1.286	 -0.003	  0.003	  0.002	 33.200	 99.122	 -99999.000
20488	 -0.442	  0.425	  0.268	  9.679	 -0.738	 -1.281	 -0.004	  0.003	  0.000	 33.200	 99.122	 -99999.000
20538	 -0.441	  0.423	  0.268	  9.668	 -0.725	 -1.250	 -0.003	  0.002	 -0.000	 33.200	 99.111	 -99999.000
20588	 -0.443	  0.427	  0.266	  9.675	 -0.748	 -1.288	 -0.003	  0.004	  0.001	 33.200	 99.122	 -99999.000
20638	 -0.444	  0.425	  0.267	  9.679	 -0.754	 -1.291	 -0.003	  0.003	 -0.000	 33.200	 99.122	 -99999.000
20688	 -0.441	  0.424	  0.264	  9.667	 -0.762	 -1.286	 -0.003	  0.002	 -0.001	 33.200	 99.122	 -99999.000
20738	 -0.443	  0.430	  0.267	  9.682	 -0.736	 -1.237	 -0.003	  0.002	 -0.000	 33.200	 99.118	 -99999.000
20788	 -0.442	  0.428	  0.265	  9.678	 -0.763	 -1.272	 -0.003	  0.003	  0.001	 33.200	 99.118	 -99999.000
20838	 -0.441	  0.428	  0.259	  9.660	 -0.745	 -1.299	 -0.003	  0.004	 -0.000	 33.200	 99.122	 -99999.000
20888	 -0.441	  0.426	  0.271	  9.704	 -0.744	 -1.293	 -0.002	  0.002	 -0.001	 33.200	 99.107	 -99999.000
20938	 -0.442	  0.432	  0.265	  9.647	 -0.747	 -1.264	 -0.003	  0.004	  0.000	 33.200	 99.122	 -99999.000
20988	 -0.441	  0.426	  0.270	  9.678	 -0.757	 -1.218	 -0.003	  0.003	  0.000	 33.200	 99.122	 -99999.000
21038	 -0.443	  0.433	  0.266	  9.679	 -0.756	 -1.229	 -0.004	  0.002	  0.000	 33.200	 99.122	 -99999.000
21088	 -0.444	  0.427	  0.269	  9.664	 -0.750	 -1.253	 -0.004	  0.003	  0.000	 33.200	 99.122	 -99999.000
21138	 -0.443	  0.425	  0.266	  9.654	 -0.739	 -1.264	 -0.004	  0.002	  0.001	 33.200	 99.122	 -99999.000
21188	 -0.442	  0.428	  0.268	  9.674	 -0.739	 -1.281	 -0.003	  0.004	  0.001	 33.200	 99.122	 -99999.000
21238	 -0.442	  0.428	  0.265	  9.663	 -0.735	 -1.257	 -0.003	  0.003	  0.000	 33.200	 99.134	 -99999.000
25464	 -0.441	  0.426	  0.265	  9.671	 -0.761	 -1.289	 -0.004	  0.003	  0.000	 33.200	 99.122	 -0.051
25513	 -0.441	  0.427	  0.268	  9.663	 -0.750	 -1.256	 -0.004	  0.003	  0.000	 33.200	 99.127	 -0.505
25563	 -0.442	  0.428	  0.269	  9.685	 -0.767	 -1.264	 -0.004	  0.002	  0.001	 33.200	 99.134	 -1.139
25613	 -0.442	  0.428	  0.268	  9.657	 -0.721	 -1.274	 -0.004	  0.003	 -0.000	 33.200	 99.107	  1.309
25662	 -0.444	  0.428	  0.270	  9.694	 -0.757	 -1.277	 -0.002	  0.000	  0.000	 33.200	 99.122	 -0.051
25713	 -0.443	  0.428	  0.265	  9.663	 -0.716	 -1.223	 -0.003	  0.005	  0.002	 33.200	 99.122	 -0.051
25763	 -0.442	  0.427	  0.270	  9.648	 -0.746	 -1.222	 -0.005	  0.002	 -0.001	 33.200	 99.122	 -0.051
25813	 -0.443	  0.430	  0.262	  9.690	 -0.736	 -1.258	 -0.003	  0.003	  0.000	 33.200	 99.122	 -0.051
25863	 -0.444	  0.431	  0.266	  9.674	 -0.736	 -1.258	 -0.002	  0.003	 -0.000	 33.200	 99.122	 -0.051
25913	 -0.442	  0.429	  0.264	  9.696	 -0.741	 -1.257	 -0.004	  0.003	 -0.000	 33.200	 99.134	 -1.139
25963	 -0.443	  0.429	  0.266	  9.660	 -0.745	 -1.306	 -0.002	  0.003	 -0.000	 33.200	 99.122	 -0.051
26013	 -0.444	  0.429	  0.265	  9.664	 -0.738	 -1.261	 -0.005	  0.002	 -0.001	 33.200	 99.122	 -0.051
26063	 -0.442	  0.437	  0.264	  9.683	 -0.758	 -1.303	 -0.003	  0.003	 -0.001	 33.200	 99.122	 -0.051
26113	 -0.442	  0.433	  0.267	  9.658	 -0.751	 -1.279	 -0.002	  0.003	  0.002	 33.200	 99.111	  0.947
26163	 -0.445	  0.427	  0.265	  9.679	 -0.754	 -1.268	 -0.005	  0.001	 -0.001	 33.200	 99.134	 -1.139
26213	 -0.443	  0.431	  0.271	  9.683	 -0.749	 -1.296	 -0.003	  0.004	 -0.001	 33.200	 99.122	 -0.051
26263	 -0.442	  0.431	  0.266	  9.685	 -0.723	 -1.282	 -0.002	  0.004	  0.000	 33.200	 99.122	 -0.051
26313	 -0.443	  0.434	  0.269	  9.679	 -0.731	 -1.270	 -0.003	  0.002	 -0.000	 33.200	 99.122	 -0.051
26363	 -0.441	  0.429	  0.268	  9.673	 -0.751	 -1.290	 -0.003	  0.002	  0.001	 33.200	 99.122	 -0.051
26413	 -0.442	  0.432	  0.271	  9.663	 -0.755	 -1.298	 -0.003	  0.002	 -0.000	 33.200	 99.122	 -0.051
26463	 -0.442	  0.427	  0.268	  9.661	 -0.740	 -1.285	 -0.004	  0.002	  0.001	 33.200	 99.122	 -0.051
26513	 -0.446	  0.437	  0.266	  9.652	 -0.746	 -1.223	 -0.005	  0.003	 -0.002	 33.200	 99.134	 -1.139
26563	 -0.443	  0.429	  0.267	  9.697	 -0.761	 -1.266	 -0.003	  0.003	  0.000	 33.200	 99.134	 -1.139
26613	 -0.442	  0.428	  0.269	  9.685	 -0.729	 -1.297	 -0.001	  0.003	  0.002	 33.200	 99.134	 -1.139
26663	 -0.442	  0.428	  0.268	  9.673	 -0.723	 -1.266	 -0.005	  0.002	 -0.001	 33.200	 99.134	 -1.139
26713	 -0.442	  0.428	  0.263	  9.694	 -0.741	 -1.275	 -0.002	  0.002	  0.001	 33.200	 99.134	 -1.139
26763	 -0.444	  0.431	  0.267	  9.677	 -0.735	 -1.246	 -0.002	  0.003	  0.000	 33.200	 99.122	 -0.051
26813	 -0.444	  0.426	  0.266	  9.673	 -0.740	 -1.222	 -0.004	  0.003	 -0.001	 33.200	 99.127	 -0.505
26863	 -0.442	  0.429	  0.271	  9.664	 -0.739	 -1.240	 -0.005	  0.002	 -0.001	 33.200	 99.134	 -1.139
26913	 -0.444	  0.429	  0.266	  9.689	 -0.748	 -1.274	 -0.004	  0.002	 -0.000	 33.200	 99.122	 -0.051
26963	 -0.444	  0.429	  0.267	  9.676	 -0.740	 -1.264	 -0.002	  0.003	 -0.000	 33.200	 99.122	 -0.051
27013	 -0.443	  0.426	  0.267	  9.652	 -0.740	 -1.262	 -0.004	  0.002	 -0.002	 33.200	 99.134	 -1.139
27063	 -0.445	  0.432	  0.263	  9.693	 -0.740	 -1.280	 -0.004	  0.002	 -0.001	 33.200	 99.122	 -0.051
27113	 -0.443	  0.430	  0.266	  9.676	 -0.746	 -1.275	 -0.004	  0.003	  0.000	 33.200	 99.111	  0.947
27163	 -0.443	  0.426	  0.267	  9.693	 -0.759	 -1.273	 -0.004	  0.003	  0.001	 33.200	 99.122	 -0.051
27213	 -0.442	  0.424	  0.269	  9.662	 -0.758	 -1.234	 -0.004	  0.001	  0.001	 33.200	 99.122	 -0.051
27263	 -0.442	  0.428	  0.266	  9.682	 -0.742	 -1.292	 -0.004	  0.003	 -0.000	 33.200	 99.122	 -0.051
27313	 -0.443	  0.426	  0.265	  9.652	 -0.747	 -1.273	 -0.002	  0.004	  0.001	 33.200	 99.134	 -1.139
27363	 -0.444	  0.427	  0.271	  9.656	 -0.753	 -1.239	 -0.006	  0.002	  0.000	 33.200	 99.115	  0.584
27413	 -0.445	  0.426	  0.269	  9.662	 -0.751	 -1.270	 -0.004	  0.004	 -0.000	 33.200	 99.122	 -0.051
27463	 -0.441	  0.428	  0.270	  9.689	 -0.742	 -1.254	 -0.005	  0.003	  0.001	 33.200	 99.122	 -0.051
27513	 -0.443	  0.427	  0.267	  9.673	 -0.754	 -1.301	 -0.004	  0.002	 -0.000	 33.200	 99.134	 -1.139
27563	 -0.442	  0.425	  0.268	  9.678	 -0.754	 -1.231	 -0.004	  0.002	  0.000	 33.200	 99.134	 -1.139
27613	 -0.443	  0.432	  0.265	  9.645	 -0.759	 -1.264	 -0.001	  0.003	  0.002	 33.200	 99.111	  0.947
27663	 -0.441	  0.427	  0.271	  9.675	 -0.767	 -1.288	 -0.004	  0.003	 -0.000	 33.200	 99.134	 -1.139
27713	 -0.442	  0.426	  0.268	  9.640	 -0.748	 -1.288	 -0.003	  0.004	  0.001	 33.200	 99.127	 -0.505
27763	 -0.444	  0.426	  0.271	  9.673	 -0.757	 -1.287	 -0.005	  0.004	 -0.000	 33.200	 99.111	  0.947
27813	 -0.441	  0.427	  0.263	  9.661	 -0.754	 -1.300	 -0.004	  0.002	  0.001	 33.200	 99.134	 -1.139
27863	 -0.442	  0.434	  0.270	  9.667	 -0.751	 -1.282	 -0.004	  0.002	 -0.001	 33.200	 99.122	 -0.051
27913	 -0.442	  0.425	  0.266	  9.676	 -0.760	 -1.245	 -0.003	  0.004	  0.001	 33.200	 99.111	  0.947
27963	 -0.442	  0.427	  0.265	  9.687	 -0.753	 -1.227	 -0.003	  0.002	  0.002	 33.200	 99.122	 -0.051
28013	 -0.442	  0.427	  0.265	  9.666	 -0.744	 -1.242	 -0.005	  0.003	 -0.000	 33.200	 99.134	 -1.139
28063	 -0.444	  0.428	  0.264	  9.669	 -0.752	 -1.249	 -0.003	  0.002	  0.000	 33.200	 99.122	 -0.051
28113	 -0.442	  0.428	  0.270	  9.647	 -0.751	 -1.269	 -0.003	  0.002	  0.000	 33.200	 99.134	 -1.139
28163	 -0.443	  0.426	  0.264	  9.652	 -0.759	 -1.255	 -0.004	  0.002	 -0.000	 33.200	 99.122	 -0.051
28213	 -0.445	  0.429	  0.266	  9.666	 -0.766	 -1.260	 -0.003	  0.003	  0.000	 33.200	 99.134	 -1.139
28263	 -0.443	  0.422	  0.271	  9.680	 -0.750	 -1.251	 -0.004	  0.004	 -0.000	 33.200	 99.122	 -0.051
28313	 -0.442	  0.428	  0.265	  9.704	 -0.748	 -1.301	 -0.003	  0.003	  0.000	 33.200	 99.111	  0.947
28363	 -0.441	  0.433	  0.269	  9.677	 -0.746	 -1.270	 -0.004	  0.002	  0.000	 33.200	 99.122	 -0.051
28413	 -0.441	  0.434	  0.265	  9.680	 -0.754	 -1.253	 -0.004	  0.001	 -0.001	 33.200	 99.127	 -0.505
28463	 -0.442	  0.425	  0.265	  9.673	 -0.742	 -1.250	 -0.003	  0.002	  0.000	 33.200	 99.134	 -1.139
28513	 -0.443	  0.432	  0.269	  9.642	 -0.725	 -1.245	 -0.002	  0.003	 -0.000	 33.200	 99.122	 -0.051
28563	 -0.443	  0.427	  0.267	  9.684	 -0.744	 -1.266	 -0.005	  0.003	 -0.001	 33.200	 99.122	 -0.051
28613	 -0.442	  0.428	  0.268	  9.684	 -0.739	 -1.269	 -0.001	  0.003	  0.000	 33.200	 99.122	 -0.051
28663	 -0.443	  0.427	  0.263	  9.667	 -0.728	 -1.278	 -0.002	  0.003	  0.000	 33.200	 99.122	 -0.051
28713	 -0.441	  0.426	  0.269	  9.671	 -0.743	 -1.265	 -0.005	  0.002	 -0.000	 33.200	 99.134	 -1.139
28763	 -0.443	  0.426	  0.266	  9.674	 -0.711	 -1.231	 -0.003	  0.001	  0.001	 33.200	 99.134	 -1.139
28813	 -0.444	  0.430	  0.266	  9.669	 -0.738	 -1.252	 -0.003	  0.002	 -0.000	 33.200	 99.122	 -0.051
28863	 -0.444	  0.427	  0.266	  9.664	 -0.738	 -1.230	 -0.003	  0.005	  0.000	 33.200	 99.134	 -1.139
28913	 -0.442	  0.428	  0.269	  9.660	 -0.740	 -1.281	 -0.004	  0.002	  0.001	 33.200	 99.134	 -1.139
28963	 -0.441	  0.429	  0.270	  9.670	 -0.742	 -1.290	 -0.005	  0.001	 -0.002	 33.200	 99.122	 -0.051
29013	 -0.440	  0.429	  0.266	  9.697	 -0.771	 -1.273	 -0.003	  0.004	  0.000	 33.200	 99.122	 -0.051
29063	 -0.443	  0.426	  0.270	  9.656	 -0.762	 -1.274	 -0.003	  0.003	  0.000	 33.200	 99.134	 -1.139
29113	 -0.447	  0.430	  0.266	  9.661	 -0.739	 -1.220	 -0.004	  0.001	 -0.001	 33.200	 99.134	 -1.139
29163	 -0.442	  0.427	  0.269	  9.683	 -0.752	 -1.247	 -0.002	  0.002	 -0.000	 33.200	 99.127	 -0.505
29213	 -0.445	  0.427	  0.264	  9.686	 -0.753	 -1.268	 -0.002	  0.003	  0.001	 33.200	 99.134	 -1.139
29263	 -0.442	  0.425	  0.264	  9.696	 -0.761	 -1.259	 -0.003	  0.002	 -0.001	 33.200	 99.115	  0.584
29313	 -0.443	  0.436	  0.267	  9.648	 -0.730	 -1.302	 -0.003	  0.002	 -0.001	 33.200	 99.122	 -0.051
29363	 -0.443	  0.425	  0.268	  9.686	 -0.739	 -1.219	 -0.003	  0.002	  0.002	 33.200	 99.111	  0.947
29413	 -0.443	  0.429	  0.269	  9.662	 -0.773	 -1.258	 -0.003	  0.002	  0.001	 33.200	 99.134	 -1.139
29463	 -0.442	  0.435	  0.269	  9.683	 -0.743	 -1.300	 -0.003	  0.002	  0.002	 33.200	 99.122	 -0.051
29512	 -0.443	  0.426	  0.271	  9.661	 -0.741	 -1.274	 -0.004	  0.004	 -0.001	 33.200	 99.122	 -0.051
29562	 -0.443	  0.429	  0.265	  9.678	 -0.760	 -1.275	 -0.003	  0.002	  0.001	 33.200	 99.122	 -0.051
29612	 -0.443	  0.426	  0.267	  9.639	 -0.748	 -1.259	 -0.003	  0.002	  0.000	 33.200	 99.122	 -0.051
29662	 -0.444	  0.427	  0.267	  9.674	 -0.753	 -1.253	 -0.005	  0.003	 -0.000	 33.200	 99.134	 -1.139
29712	 -0.443	  0.424	  0.264	  9.672	 -0.747	 -1.277	 -0.003	  0.003	 -0.000	 33.200	 99.122	 -0.051
29762	 -0.441	  0.428	  0.268	  9.659	 -0.754	 -1.282	 -0.003	  0.003	 -0.000	 33.200	 99.134	 -1.139
29812	 -0.443	  0.429	  0.267	  9.685	 -0.748	 -1.272	 -0.004	  0.003	  0.000	 33.200	 99.127	 -0.505
29862	 -0.441	  0.424	  0.268	  9.678	 -0.751	 -1.286	 -0.004	  0.002	  0.000	 33.200	 99.122	 -0.051
29912	 -0.443	  0.427	  0.265	  9.656	 -0.732	 -1.253	 -0.003	  0.003	  0.001	 33.200	 99.122	 -0.051
29962	 -0.442	  0.435	  0.266	  9.669	 -0.723	 -1.260	 -0.002	  0.001	  0.000	 33.200	 99.127	 -0.505
30012	 -0.443	  0.428	  0.267	  9.667	 -0.739	 -1.276	 -0.002	  0.003	  0.000	 33.200	 99.111	  0.947
30062	 -0.443	  0.426	  0.270	  9.703	 -0.741	 -1.308	 -0.004	  0.002	  0.001	 33.200	 99.122	 -0.051
30112	 -0.441	  0.434	  0.269	  9.665	 -0.734	 -1.283	 -0.004	  0.003	  0.000	 33.200	 99.122	 -0.051
30162	 -0.446	  0.426	  0.266	  9.663	 -0.740	 -1.204	 -0.002	  0.003	  0.000	 33.200	 99.122	 -0.051
30212	 -0.443	  0.431	  0.266	  9.658	 -0.744	 -1.279	 -0.004	  0.003	  0.000	 33.200	 99.122	 -0.051
30263	 -0.443	  0.425	  0.262	  9.669	 -0.749	 -1.259	 -0.003	  0.002	 -0.001	 33.200	 99.127	 -0.505
30312	 -0.444	  0.427	  0.265	  9.650	 -0.731	 -1.274	 -0.003	  0.001	 -0.000	 33.200	 99.122	 -0.051
30362	 -0.444	  0.428	  0.264	  9.667	 -0.743	 -1.262	 -0.004	  0.004	  0.001	 33.200	 99.122	 -0.051
30412	 -0.440	  0.431	  0.266	  9.668	 -0.749	 -1.268	 -0.005	  0.001	 -0.001	 33.200	 99.134	 -1.139
30462	 -0.444	  0.426	  0.267	  9.649	 -0.753	 -1.250	 -0.004	  0.003	 -0.001	 33.200	 99.127	 -0.505
30512	 -0.443	  0.429	  0.270	  9.697	 -0.763	 -1.295	 -0.003	  0.003	  0.000	 33.200	 99.122	 -0.051
30562	 -0.443	  0.430	  0.266	  9.654	 -0.767	 -1.280	 -0.003	  0.002	  0.002	 33.200	 99.127	 -0.505
30612	 -0.444	  0.425	  0.270	  9.657	 -0.733	 -1.238	 -0.004	  0.003	 -0.001	 33.200	 99.122	 -0.051
30662	 -0.443	  0.435	  0.270	  9.657	 -0.741	 -1.265	 -0.003	  0.003	  0.000	 33.200	 99.122	 -0.051
30713	 -0.444	  0.428	  0.266	  9.677	 -0.734	 -1.273	 -0.003	  0.003	  0.000	 33.200	 99.122	 -0.051
30763	 -0.443	  0.432	  0.267	  9.665	 -0.731	 -1.269	 -0.004	  0.003	 -0.000	 33.200	 99.138	 -1.502
30812	 -0.444	  0.429	  0.264	  9.679	 -0.744	 -1.286	 -0.003	  0.002	 -0.000	 33.200	 99.127	 -0.505
30862	 -0.443	  0.432	  0.267	  9.676	 -0.741	 -1.290	 -0.003	  0.002	  0.001	 33.200	 99.122	 -0.051
30912	 -0.441	  0.427	  0.268	  9.666	 -0.758	 -1.254	 -0.003	  0.002	 -0.001	 33.200	 99.122	 -0.051
30963	 -0.443	  0.428	  0.266	  9.674	 -0.755	 -1.258	 -0.004	  0.002	 -0.000	 33.200	 99.122	 -0.051
31014	 -0.444	  0.428	  0.270	  9.658	 -0.736	 -1.275	 -0.004	  0.003	  0.000	 33.200	 99.122	 -0.051
31064	 -0.445	  0.428	  0.269	  9.678	 -0.744	 -1.267	 -0.003	  0.002	  0.001	 33.200	 99.134	 -1.139
31114	 -0.442	  0.429	  0.271	  9.675	 -0.746	 -1.264	 -0.003	  0.004	  0.001	 33.200	 99.122	 -0.051
31164	 -0.446	  0.427	  0.262	  9.690	 -0.761	 -1.249	 -0.004	  0.004	  0.002	 33.200	 99.122	 -0.051
31214	 -0.443	  0.425	  0.268	  9.686	 -0.736	 -1.259	 -0.004	  0.003	  0.001	 33.200	 99.122	 -0.051
31264	 -0.444	  0.430	  0.269	  9.668	 -0.744	 -1.258	 -0.003	  0.003	  0.001	 33.200	 99.127	 -0.505
31314	 -0.444	  0.426	  0.265	  9.667	 -0.753	 -1.260	 -0.004	  0.002	 -0.000	 33.200	 99.122	 -0.051
31364	 -0.442	  0.428	  0.269	  9.679	 -0.731	 -1.274	 -0.003	  0.004	  0.001	 33.200	 99.122	 -0.051
31414	 -0.443	  0.422	  0.266	  9.668	 -0.751	 -1.278	 -0.004	  0.003	 -0.000	 33.200	 99.138	 -1.502
31464	 -0.442	  0.427	  0.269	  9.666	 -0.744	 -1.254	 -0.003	  0.002	  0.000	 33.200	 99.138	 -1.502
31514	 -0.442	  0.431	  0.266	  9.658	 -0.753	 -1.252	 -0.003	  0.002	  0.001	 33.200	 99.111	  0.947
31564	 -0.443	  0.427	  0.263	  9.639	 -0.754	 -1.295	 -0.004	  0.003	  0.001	 33.200	 99.122	 -0.051
31614	 -0.443	  0.429	  0.263	  9.677	 -0.730	 -1.251	 -0.003	  0.003	  0.001	 33.200	 99.122	 -0.051
31664	 -0.442	  0.426	  0.265	  9.699	 -0.744	 -1.247	 -0.002	  0.002	 -0.000	 33.200	 99.122	 -0.051
31714	 -0.443	  0.428	  0.270	  9.679	 -0.757	 -1.263	 -0.004	  0.003	 -0.000	 33.200	 99.134	 -1.139
31764	 -0.445	  0.426	  0.261	  9.675	 -0.744	 -1.246	 -0.002	  0.002	 -0.001	 33.200	 99.122	 -0.051
31813	 -0.442	  0.429	  0.270	  9.683	 -0.754	 -1.253	 -0.004	  0.003	  0.000	 33.200	 99.122	 -0.051
31863	 -0.440	  0.426	  0.268	  9.680	 -0.753	 -1.293	 -0.004	  0.003	 -0.000	 33.200	 99.115	  0.584
31913	 -0.442	  0.435	  0.267	  9.703	 -0.730	 -1.274	 -0.004	  0.003	  0.000	 33.200	 99.134	 -1.139
31963	 -0.443	  0.425	  0.266	  9.662	 -0.742	 -1.282	 -0.002	  0.002	 -0.000	 33.200	 99.115	  0.584
32013	 -0.442	  0.428	  0.268	  9.670	 -0.754	 -1.252	 -0.004	  0.003	  0.001	 33.200	 99.122	 -0.051
32063	 -0.443	  0.429	  0.270	  9.677	 -0.731	 -1.264	 -0.004	  0.002	  0.000	 33.200	 99.127	 -0.505
32113	 -0.443	  0.429	  0.269	  9.712	 -0.773	 -1.288	 -0.004	  0.003	  0.000	 33.200	 99.138	 -1.502
32163	 -0.443	  0.428	  0.264	  9.679	 -0.752	 -1.234	 -0.003	  0.004	  0.000	 33.200	 99.122	 -0.051
32213	 -0.443	  0.427	  0.270	  9.683	 -0.757	 -1.246	 -0.004	  0.001	 -0.001	 33.200	 99.134	 -1.139
32263	 -0.445	  0.429	  0.267	  9.666	 -0.751	 -1.255	 -0.003	  0.003	  0.000	 33.200	 99.122	 -0.051
32313	 -0.442	  0.431	  0.259	  9.661	 -0.753	 -1.307	 -0.003	  0.003	  0.000	 33.200	 99.115	  0.584
32363	 -0.442	  0.426	  0.269	  9.673	 -0.727	 -1.242	 -0.004	  0.002	 -0.000	 33.200	 99.134	 -1.139
32413	 -0.442	  0.426	  0.265	  9.670	 -0.783	 -1.268	 -0.003	  0.003	  0.001	 33.200	 99.127	 -0.505
32463	 -0.442	  0.426	  0.266	  9.668	 -0.740	 -1.271	 -0.003	  0.003	  0.001	 33.200	 99.122	 -0.051
32513	 -0.446	  0.428	  0.268	  9.693	 -0.773	 -1.252	 -0.004	  0.003	 -0.000	 33.200	 99.122	 -0.051
32563	 -0.444	  0.426	  0.267	  9.661	 -0.745	 -1.265	 -0.004	  0.002	 -0.001	 33.200	 99.122	 -0.051
32613	 -0.443	  0.428	  0.267	  9.711	 -0.756	 -1.268	 -0.004	  0.003	  0.000	 33.200	 99.122	 -0.051
32663	 -0.444	  0.430	  0.262	  9.679	 -0.738	 -1.260	 -0.002	  0.004	  0.000	 33.200	 99.127	 -0.505
32714	 -0.443	  0.429	  0.267	  9.666	 -0.726	 -1.271	 -0.004	  0.001	  0.000	 33.200	 99.122	 -0.051
32764	 -0.446	  0.429	  0.260	  9.687	 -0.742	 -1.241	 -0.003	  0.004	  0.000	 33.200	 99.127	 -0.505
32813	 -0.442	  0.430	  0.268	  9.657	 -0.739	 -1.267	 -0.003	  0.003	  0.000	 33.200	 99.122	 -0.051
32863	 -0.442	  0.424	  0.268	  9.678	 -0.732	 -1.282	 -0.005	  0.002	  0.000	 33.200	 99.122	 -0.051
32913	 -0.441	  0.424	  0.268	  9.654	 -0.745	 -1.266	 -0.003	  0.001	 -0.000	 33.200	 99.122	 -0.051
32963	 -0.442	  0.428	  0.268	  9.685	 -0.747	 -1.293	 -0.003	  0.004	 -0.002	 33.200	 99.134	 -1.139
33013	 -0.441	  0.427	  0.264	  9.652	 -0.769	 -1.233	 -0.003	  0.002	  0.000	 33.200	 99.107	  1.309
33063	 -0.442	  0.427	  0.269	  9.639	 -0.764	 -1.274	 -0.004	  0.002	  0.000	 33.200	 99.134	 -1.139
33113	 -0.444	  0.425	  0.265	  9.681	 -0.747	 -1.269	 -0.004	  0.003	  0.001	 33.200	 99.122	 -0.051
33163	 -0.443	  0.430	  0.269	  9.675	 -0.749	 -1.248	 -0.003	  0.002	  0.000	 33.200	 99.134	 -1.139
33213	 -0.441	  0.426	  0.265	  9.681	 -0.750	 -1.266	 -0.004	  0.002	 -0.000	 33.200	 99.115	  0.584
33263	 -0.442	  0.423	  0.264	  9.664	 -0.771	 -1.289	 -0.004	  0.003	 -0.000	 33.200	 99.122	 -0.051
33313	 -0.445	  0.426	  0.266	  9.668	 -0.727	 -1.243	 -0.003	  0.002	  0.001	 33.200	 99.127	 -0.505
33363	 -0.443	  0.426	  0.269	  9.667	 -0.742	 -1.260	 -0.004	  0.003	 -0.000	 33.200	 99.138	 -1.502
33413	 -0.442	  0.429	  0.269	  9.680	 -0.743	 -1.277	 -0.003	  0.003	  0.002	 33.200	 99.122	 -0.051
33463	 -0.443	  0.426	  0.264	  9.683	 -0.744	 -1.262	 -0.004	  0.002	 -0.000	 33.200	 99.122	 -0.051
33513	 -0.440	  0.429	  0.269	  9.656	 -0.752	 -1.273	 -0.002	  0.003	 -0.001	 33.200	 99.134	 -1.139
33563	 -0.445	  0.428	  0.264	  9.668	 -0.741	 -1.265	 -0.004	  0.003	  0.001	 33.200	 99.122	 -0.051
33613	 -0.440	  0.430	  0.266	  9.670	 -0.761	 -1.265	 -0.003	  0.003	  0.000	 33.200	 99.134	 -1.139
33663	 -0.442	  0.429	  0.265	  9.686	 -0.720	 -1.247	 -0.002	  0.002	 -0.000	 33.200	 99.122	 -0.051
33713	 -0.443	  0.430	  0.269	  9.659	 -0.736	 -1.253	 -0.004	  0.002	 -0.001	 33.200	 99.134	 -1.139
33763	 -0.444	  0.425	  0.264	  9.668	 -0.756	 -1.273	 -0.003	  0.002	  0.002	 33.200	 99.127	 -0.505
33813	 -0.442	  0.431	  0.270	  9.684	 -0.745	 -1.246	 -0.002	  0.002	  0.000	 33.200	 99.122	 -0.051
33863	 -0.444	  0.426	  0.265	  9.659	 -0.738	 -1.244	 -0.003	  0.001	 -0.000	 33.200	 99.122	 -0.051
33913	 -0.442	  0.434	  0.264	  9.672	 -0.758	 -1.238	 -0.003	  0.002	  0.001	 33.200	 99.134	 -1.139
33963	 -0.442	  0.425	  0.269	  9.645	 -0.742	 -1.238	 -0.004	  0.002	 -0.000	 33.200	 99.127	 -0.505
34013	 -0.441	  0.427	  0.263	  9.707	 -0.769	 -1.268	 -0.003	  0.002	  0.000	 33.200	 99.127	 -0.505
34063	 -0.441	  0.427	  0.266	  9.669	 -0.730	 -1.273	 -0.003	  0.003	  0.001	 33.200	 99.122	 -0.051
34113	 -0.444	  0.429	  0.267	  9.697	 -0.745	 -1.264	 -0.003	  0.003	 -0.001	 33.200	 99.134	 -1.139
34163	 -0.444	  0.427	  0.265	  9.659	 -0.755	 -1.260	 -0.003	  0.002	 -0.000	 33.200	 99.134	 -1.139
34213	 -0.442	  0.430	  0.266	  9.689	 -0.749	 -1.239	 -0.003	  0.002	 -0.001	 33.200	 99.134	 -1.139
34263	 -0.445	  0.435	  0.265	  9.658	 -0.744	 -1.263	 -0.003	  0.003	 -0.000	 33.200	 99.122	 -0.051
34313	 -0.443	  0.430	  0.270	  9.659	 -0.730	 -1.261	 -0.005	  0.001	 -0.000	 33.200	 99.134	 -1.139
34363	 -0.444	  0.426	  0.261	  9.699	 -0.770	 -1.257	 -0.003	  0.003	 -0.000	 33.200	 99.122	 -0.051
34413	 -0.443	  0.426	  0.266	  9.667	 -0.768	 -1.267	 -0.002	  0.003	  0.001	 33.200	 99.138	 -1.502
34463	 -0.442	  0.427	  0.270	  9.647	 -0.723	 -1.268	 -0.005	  0.002	 -0.000	 33.200	 99.127	 -0.505
34513	 -0.442	  0.427	  0.268	  9.686	 -0.772	 -1.264	 -0.003	  0.002	 -0.000	 33.200	 99.134	 -1.139
34563	 -0.443	  0.429	  0.269	  9.685	 -0.756	 -1.288	 -0.002	  0.004	  0.002	 33.200	 99.122	 -0.051
34613	 -0.441	  0.432	  0.265	  9.651	 -0.755	 -1.273	 -0.004	  0.001	  0.001	 33.200	 99.115	  0.584
34663	 -0.442	  0.427	  0.266	  9.670	 -0.768	 -1.252	 -0.004	  0.001	 -0.001	 33.200	 99.122	 -0.051
34713	 -0.444	  0.427	  0.262	  9.703	 -0.750	 -1.263	 -0.003	  0.003	  0.001	 33.200	 99.122	 -0.051
34763	 -0.442	  0.427	  0.264	  9.670	 -0.760	 -1.256	 -0.004	  0.002	 -0.001	 33.200	 99.122	 -0.051
34813	 -0.442	  0.429	  0.266	  9.674	 -0.740	 -1.248	 -0.004	  0.003	  0.000	 33.200	 99.111	  0.947
34863	 -0.442	  0.426	  0.266	  9.664	 -0.757	 -1.286	 -0.002	  0.002	 -0.000	 33.200	 99.122	 -0.051
34913	 -0.438	  0.429	  0.268	  9.681	 -1.256	 -0.275	 -0.294	  0.127	  0.133	 33.200	 99.134	 -1.139
34963	 -0.441	  0.432	  0.265	  9.553	 -0.630	 -1.995	 -0.257	 -0.061	 -0.123	 33.200	 99.122	 -0.051
35013	 -0.440	  0.424	  0.272	  9.542	 -0.299	 -0.615	  0.121	  0.046	 -0.013	 33.200	 99.127	 -0.505
35063	 -0.443	  0.430	  0.265	  9.673	 -0.881	 -1.516	  0.125	  0.058	  0.021	 33.200	 99.127	 -0.505
35113	 -0.443	  0.427	  0.267	  9.627	 -0.634	 -1.404	 -0.078	 -0.020	 -0.016	 33.200	 99.134	 -1.139
35163	 -0.441	  0.425	  0.258	  9.667	 -0.732	 -1.351	 -0.041	 -0.012	  0.008	 33.200	 99.122	 -0.051
35213	 -0.442	  0.430	  0.266	  9.471	 -0.165	 -1.189	  0.354	  0.016	  0.090	 33.200	 99.122	 -0.051
35263	 -0.445	  0.447	  0.252	  9.529	 -0.456	 -1.160	  1.102	  0.136	  0.033	 33.200	 99.127	 -0.505
35313	 -0.449	  0.456	  0.224	  9.527	 -0.776	 -0.743	  0.704	  0.321	  0.179	 33.200	 99.127	 -0.505
35363	 -0.440	  0.468	  0.218	 11.068	 -1.312	 -1.544	  0.210	 -0.175	  0.172	 33.200	 99.127	 -0.505
35413	 -0.447	  0.463	  0.212	 11.549	 -1.220	 -1.155	 -0.143	  0.275	 -0.233	 33.200	 99.122	 -0.051
35463	 -0.461	  0.433	  0.202	  9.689	 -1.755	 -0.811	 -0.130	 -0.250	 -0.962	 33.200	 99.138	 -1.502
35513	 -0.481	  0.410	  0.196	 -1.017	  2.994	  1.165	 -0.080	 -0.196	 -0.543	 33.200	 99.122	 -0.051
35563	 -0.454	  0.447	  0.219	 44.208	 -2.851	 -9.846	  0.032	  1.021	  1.422	 33.200	 99.134	 -1.139
35613	 -0.450	  0.451	  0.205	 16.518	 -6.851	 -4.380	  0.275	 -0.206	 -0.520	 33.200	 99.122	 -0.051
35663	 -0.470	  0.388	  0.211	 -9.009	  5.669	  2.910	 -0.492	 -0.334	 -1.254	 33.200	 99.127	 -0.505
35713	 -0.448	  0.446	  0.211	 50.100	 -28.457	 -13.769	  1.615	  3.147	 -0.448	 33.200	 99.115	  0.584
35763	 -0.436	  0.482	  0.203	 16.215	 -10.335	 -3.812	  0.109	  0.955	  0.756	 33.200	 99.134	 -1.139
35813	 -0.469	  0.422	  0.181	  0.565	  1.563	  2.558	 -0.739	 -0.054	 -1.801	 33.200	 99.122	 -0.051
35864	 -0.463	  0.427	  0.204	  1.868	  3.357	 -2.621	  0.579	  0.002	  1.596	 33.200	 99.138	 -1.502
35913	 -0.443	  0.460	  0.208	 14.906	 -3.731	  4.002	  0.326	 -0.315	  1.450	 33.200	 99.122	 -0.051
35964	 -0.451	  0.454	  0.203	  9.352	 -0.963	 -1.410	 -0.366	  0.256	 -0.698	 33.200	 99.127	 -0.505
36013	 -0.461	  0.433	  0.199	  6.747	  0.644	 -0.543	 -0.386	  0.017	 -0.016	 33.200	 99.122	 -0.051
36063	 -0.457	  0.438	  0.219	 10.378	 -0.806	  0.189	  0.000	 -0.188	  0.110	 33.200	 99.127	 -0.505
36113	 -0.455	  0.430	  0.233	  8.235	  1.049	 -2.398	 -0.555	 -0.323	 -0.026	 33.200	 99.122	 -0.051
36163	 -0.455	  0.435	  0.234	  9.808	 -0.947	 -1.487	  0.090	 -0.014	 -0.016	 33.200	 99.127	 -0.505
36213	 -0.456	  0.431	  0.230	  9.502	 -0.266	 -1.311	 -0.157	 -0.014	 -0.099	 33.200	 99.122	 -0.051
36263	 -0.454	  0.435	  0.234	  9.549	 -0.237	 -1.268	  0.287	  0.032	  0.193	 33.200	 99.122	 -0.051
36314	 -0.454	  0.442	  0.228	  9.787	 -1.025	 -1.680	  0.122	  0.020	  0.032	 33.200	 99.127	 -0.505
36363	 -0.455	  0.442	  0.233	  9.639	 -0.513	 -1.215	 -0.062	 -0.025	 -0.006	 33.200	 99.115	  0.584
36413	 -0.454	  0.446	  0.230	  9.671	 -0.598	 -1.312	  0.040	  0.012	  0.009	 33.200	 99.122	 -0.051
36463	 -0.456	  0.439	  0.227	  9.651	 -0.616	 -1.272	 -0.025	 -0.004	 -0.004	 33.200	 99.134	 -1.139
36514	 -0.454	  0.445	  0.231	  9.706	 -0.643	 -1.303	  0.009	  0.008	  0.004	 33.200	 99.111	  0.947
36564	 -0.454	  0.443	  0.233	  9.663	 -0.619	 -1.209	 -0.006	  0.002	  0.001	 33.200	 99.122	 -0.051
36614	 -0.454	  0.442	  0.231	  9.685	 -0.655	 -1.251	 -0.006	  0.000	  0.000	 33.200	 99.138	 -1.502
36664	 -0.455	  0.439	  0.229	  9.695	 -0.636	 -1.237	 -0.001	  0.004	  0.002	 33.200	 99.138	 -1.502
36714	 -0.452	  0.444	  0.234	  9.678	 -0.633	 -1.269	 -0.003	  0.002	  0.001	 33.200	 99.122	 -0.051
36764	 -0.455	  0.446	  0.230	  9.675	 -0.654	 -1.281	 -0.000	  0.003	 -0.000	 33.200	 99.122	 -0.051
36814	 -0.456	  0.441	  0.229	  9.673	 -0.624	 -1.280	 -0.003	  0.003	  0.001	 33.200	 99.122	 -0.051
36864	 -0.452	  0.440	  0.228	  9.684	 -0.626	 -1.217	 -0.004	  0.001	  0.001	 33.200	 99.122	 -0.051
36914	 -0.456	  0.441	  0.231	  9.693	 -0.667	 -1.260	 -0.003	  0.003	  0.001	 33.200	 99.134	 -1.139
36964	 -0.456	  0.442	  0.229	  9.677	 -0.671	 -1.246	 -0.002	  0.003	  0.002	 33.200	 99.127	 -0.505
37014	 -0.455	  0.447	  0.234	  9.677	 -0.623	 -1.254	 -0.004	  0.002	  0.000	 33.200	 99.134	 -1.139
37064	 -0.454	  0.444	  0.231	  9.660	 -0.638	 -1.223	 -0.003	  0.002	  0.001	 33.200	 99.115	  0.584
37114	 -0.455	  0.441	  0.229	  9.685	 -0.641	 -1.207	 -0.003	  0.001	  0.001	 33.200	 99.127	 -0.505
37164	 -0.454	  0.443	  0.231	  9.676	 -0.656	 -1.229	 -0.004	  0.004	  0.001	 33.200	 99.122	 -0.051
37214	 -0.453	  0.443	  0.227	  9.694	 -0.638	 -1.266	 -0.002	  0.002	  0.001	 33.200	 99.122	 -0.051
37264	 -0.455	  0.442	  0.228	  9.664	 -0.634	 -1.257	 -0.003	  0.002	  0.000	 33.200	 99.122	 -0.051
37314	 -0.453	  0.441	  0.231	  9.681	 -0.642	 -1.203	 -0.004	  0.002	  0.000	 33.200	 99.138	 -1.502
37364	 -0.453	  0.442	  0.231	  9.698	 -0.642	 -1.241	 -0.004	  0.002	  0.001	 33.200	 99.127	 -0.505
37414	 -0.454	  0.441	  0.228	  9.699	 -0.671	 -1.232	 -0.002	  0.003	  0.001	 33.200	 99.122	 -0.051
37463	 -0.455	  0.443	  0.228	  9.678	 -0.625	 -1.252	 -0.005	  0.003	 -0.000	 33.200	 99.122	 -0.051
37513	 -0.454	  0.444	  0.230	  9.677	 -0.675	 -1.268	 -0.001	  0.002	  0.001	 33.200	 99.127	 -0.505
37563	 -0.455	  0.448	  0.229	  9.694	 -0.649	 -1.248	 -0.001	  0.003	  0.001	 33.200	 99.122	 -0.051
37613	 -0.454	  0.443	  0.233	  9.668	 -0.634	 -1.258	 -0.003	  0.003	  0.000	 33.200	 99.127	 -0.505
37663	 -0.454	  0.441	  0.227	  9.664	 -0.658	 -1.233	 -0.005	  0.004	 -0.001	 33.200	 99.122	 -0.051
37713	 -0.451	  0.447	  0.231	  9.670	 -0.666	 -1.228	 -0.003	  0.001	  0.001	 33.200	 99.122	 -0.051
37763	 -0.455	  0.443	  0.231	  9.684	 -0.645	 -1.269	 -0.005	  0.004	  0.001	 33.200	 99.127	 -0.505
37813	 -0.455	  0.446	  0.229	  9.680	 -0.654	 -1.235	 -0.002	  0.002	 -0.000	 33.200	 99.122	 -0.051
37863	 -0.453	  0.446	  0.231	  9.673	 -0.634	 -1.233	 -0.004	  0.002	  0.001	 33.200	 99.127	 -0.505
37913	 -0.456	  0.443	  0.230	  9.680	 -0.653	 -1.228	 -0.003	  0.003	  0.000	 33.200	 99.127	 -0.505
37963	 -0.454	  0.444	  0.231	  9.676	 -0.636	 -1.227	 -0.003	  0.003	 -0.000	 33.200	 99.115	  0.584
38013	 -0.455	  0.454	  0.227	  9.696	 -0.624	 -1.272	 -0.003	  0.003	  0.001	 33.200	 99.115	  0.584
38063	 -0.455	  0.446	  0.230	  9.688	 -0.635	 -1.256	 -0.003	  0.002	  0.000	 33.200	 99.127	 -0.505
38113	 -0.454	  0.446	  0.226	  9.699	 -0.664	 -1.249	 -0.002	  0.002	 -0.000	 33.200	 99.138	 -1.502
38163	 -0.453	  0.443	  0.235	  9.707	 -0.667	 -1.240	 -0.002	  0.003	  0.000	 33.200	 99.142	 -1.864
38213	 -0.455	  0.445	  0.229	  9.678	 -0.630	 -1.240	 -0.002	  0.004	  0.001	 33.200	 99.115	  0.584
38263	 -0.456	  0.447	  0.230	  9.680	 -0.665	 -1.237	 -0.004	  0.002	  0.001	 33.200	 99.127	 -0.505
38313	 -0.454	  0.443	  0.229	  9.667	 -0.649	 -1.241	 -0.003	  0.003	  0.000	 33.200	 99.122	 -0.051
38363	 -0.456	  0.444	  0.227	  9.714	 -0.661	 -1.260	 -0.002	  0.004	  0.001	 33.200	 99.127	 -0.505
38413	 -0.455	  0.443	  0.233	  9.753	 -0.619	 -1.182	 -0.005	  0.005	 -0.004	 33.200	 99.127	 -0.505
38463	 -0.454	  0.448	  0.228	  9.719	 -0.691	 -1.178	  0.000	  0.002	  0.005	 33.200	 99.122	 -0.051
38513	 -0.454	  0.449	  0.229	  9.671	 -0.576	 -1.252	 -0.005	  0.003	  0.001	 33.200	 99.127	 -0.505
38563	 -0.455	  0.444	  0.229	  9.664	 -0.670	 -1.224	 -0.007	  0.001	 -0.003	 33.200	 99.134	 -1.139
38613	 -0.457	  0.442	  0.232	  9.708	 -0.648	 -1.261	 -0.002	  0.003	  0.001	 33.200	 99.127	 -0.505
38663	 -0.457	  0.449	  0.230	  9.691	 -0.662	 -1.248	 -0.001	  0.003	 -0.001	 33.200	 99.134	 -1.139
38713	 -0.454	  0.442	  0.231	  9.689	 -0.671	 -1.216	  0.000	  0.003	  0.002	 33.200	 99.122	 -0.051
38763	 -0.454	  0.443	  0.234	  9.682	 -0.607	 -1.227	 -0.003	  0.002	  0.000	 33.200	 99.134	 -1.139
38813	 -0.454	  0.447	  0.229	  9.683	 -0.663	 -1.236	 -0.004	  0.002	 -0.001	 33.200	 99.134	 -1.139
38863	 -0.455	  0.444	  0.230	  9.680	 -0.658	 -1.247	 -0.002	  0.003	  0.000	 33.200	 99.122	 -0.051
38913	 -0.455	  0.445	  0.225	  9.698	 -0.651	 -1.264	 -0.004	  0.003	  0.000	 33.200	 99.127	 -0.505
38963	 -0.455	  0.448	  0.229	  9.671	 -0.644	 -1.219	 -0.003	  0.004	 -0.001	 33.200	 99.138	 -1.502
39013	 -0.454	  0.444	  0.229	  9.677	 -0.650	 -1.221	 -0.004	  0.003	  0.001	 33.200	 99.115	  0.584
39063	 -0.452	  0.442	  0.229	  9.650	 -0.647	 -1.193	 -0.004	  0.002	  0.000	 33.200	 99.127	 -0.505
39113	 -0.454	  0.451	  0.233	  9.690	 -0.637	 -1.230	 -0.006	  0.004	 -0.001	 33.200	 99.134	 -1.139
39163	 -0.456	  0.446	  0.230	  9.657	 -0.654	 -1.250	 -0.002	  0.002	 -0.001	 33.200	 99.122	 -0.051
39213	 -0.453	  0.444	  0.234	  9.675	 -0.657	 -1.278	 -0.002	  0.002	  0.001	 33.200	 99.134	 -1.139
39263	 -0.452	  0.451	  0.228	  9.697	 -0.635	 -1.243	 -0.002	  0.003	  0.001	 33.200	 99.122	 -0.051
39313	 -0.454	  0.443	  0.228	  9.684	 -0.672	 -1.265	 -0.003	  0.002	  0.000	 33.200	 99.134	 -1.139
39363	 -0.454	  0.444	  0.229	  9.669	 -0.646	 -1.235	 -0.002	  0.002	  0.000	 33.200	 99.127	 -0.505
39413	 -0.456	  0.445	  0.226	  9.694	 -0.656	 -1.245	 -0.002	  0.002	  0.002	 33.200	 99.122	 -0.051
39463	 -0.455	  0.444	  0.230	  9.701	 -0.620	 -1.271	 -0.001	  0.003	  0.001	 33.200	 99.127	 -0.505
39513	 -0.453	  0.442	  0.229	  9.685	 -0.646	 -1.238	 -0.002	  0.003	  0.000	 33.200	 99.134	 -1.139
39563	 -0.454	  0.442	  0.229	  9.683	 -0.648	 -1.261	 -0.003	  0.003	 -0.000	 33.200	 99.122	 -0.051
39613	 -0.454	  0.443	  0.230	  9.692	 -0.636	 -1.223	 -0.002	  0.003	 -0.000	 33.200	 99.134	 -1.139
39663	 -0.453	  0.443	  0.231	  9.670	 -0.643	 -1.251	 -0.005	  0.003	  0.001	 33.200	 99.122	 -0.051
39713	 -0.455	  0.445	  0.228	  9.697	 -0.654	 -1.262	 -0.005	  0.002	  0.000	 33.200	 99.111	  0.947
39763	 -0.456	  0.442	  0.230	  9.693	 -0.641	 -1.253	 -0.005	  0.002	 -0.000	 33.200	 99.138	 -1.502
39813	 -0.454	  0.443	  0.229	  9.674	 -0.649	 -1.208	 -0.004	  0.003	 -0.000	 33.200	 99.122	 -0.051
39863	 -0.456	  0.444	  0.233	  9.687	 -0.634	 -1.258	 -0.005	  0.004	  0.000	 33.200	 99.127	 -0.505
39913	 -0.457	  0.443	  0.231	  9.678	 -0.651	 -1.247	 -0.006	  0.002	  0.000	 33.200	 99.138	 -1.502
39963	 -0.454	  0.444	  0.229	  9.681	 -0.664	 -1.207	 -0.006	  0.002	  0.000	 33.200	 99.134	 -1.139
40013	 -0.456	  0.443	  0.230	  9.685	 -0.655	 -1.252	 -0.005	  0.004	 -0.000	 33.200	 99.122	 -0.051
40063	 -0.454	  0.451	  0.230	  9.677	 -0.654	 -1.250	 -0.005	  0.002	  0.001	 33.200	 99.127	 -0.505
40113	 -0.456	  0.445	  0.229	  9.681	 -0.671	 -1.249	 -0.003	  0.002	  0.001	 33.200	 99.122	 -0.051
40163	 -0.456	  0.442	  0.222	  9.656	 -0.652	 -1.251	 -0.002	  0.003	  0.001	 33.200	 99.127	 -0.505
40213	 -0.455	  0.441	  0.229	  9.681	 -0.642	 -1.274	 -0.001	  0.003	  0.000	 33.200	 99.134	 -1.139
40263	 -0.453	  0.443	  0.231	  9.659	 -0.635	 -1.218	 -0.002	  0.003	  0.001	 33.200	 99.122	 -0.051
40313	 -0.455	  0.448	  0.233	  9.696	 -0.663	 -1.274	 -0.003	  0.003	  0.002	 33.200	 99.127	 -0.505
40363	 -0.455	  0.441	  0.229	  9.684	 -0.654	 -1.244	 -0.001	  0.002	  0.001	 33.200	 99.115	  0.584
40413	 -0.455	  0.445	  0.229	  9.691	 -0.646	 -1.192	 -0.001	  0.003	 -0.000	 33.200	 99.122	 -0.051
40463	 -0.455	  0.441	  0.233	  9.688	 -0.651	 -1.240	 -0.001	  0.002	  0.000	 33.200	 99.134	 -1.139
40513	 -0.453	  0.443	  0.230	  9.691	 -0.637	 -1.237	 -0.003	  0.003	 -0.000	 33.200	 99.111	  0.947
40563	 -0.455	  0.445	  0.228	  9.692	 -0.655	 -1.214	 -0.006	  0.003	 -0.000	 33.200	 99.138	 -1.502
40613	 -0.454	  0.445	  0.228	  9.679	 -0.670	 -1.209	 -0.005	  0.002	  0.002	 33.200	 99.127	 -0.505
40663	 -0.454	  0.441	  0.227	  9.676	 -0.639	 -1.214	 -0.005	  0.002	 -0.000	 33.200	 99.138	 -1.502
40713	 -0.452	  0.441	  0.230	  9.678	 -0.632	 -1.264	 -0.006	  0.002	  0.000	 33.200	 99.127	 -0.505
40763	 -0.455	  0.447	  0.231	  9.698	 -0.667	 -1.217	 -0.006	  0.003	 -0.000	 33.200	 99.127	 -0.505
40813	 -0.454	  0.442	  0.229	  9.665	 -0.656	 -1.247	 -0.005	  0.003	  0.000	 33.200	 99.127	 -0.505
40863	 -0.456	  0.443	  0.230	  9.677	 -0.657	 -1.210	 -0.004	  0.002	  0.001	 33.200	 99.134	 -1.139
40913	 -0.453	  0.443	  0.234	  9.677	 -0.643	 -1.254	 -0.003	  0.003	 -0.000	 33.200	 99.138	 -1.502
40963	 -0.453	  0.442	  0.230	  9.699	 -0.656	 -1.257	 -0.003	  0.004	  0.000	 33.200	 99.115	  0.584
41013	 -0.455	  0.444	  0.230	  9.695	 -0.660	 -1.207	 -0.002	  0.003	  0.001	 33.200	 99.127	 -0.505
41063	 -0.456	  0.442	  0.229	  9.673	 -0.639	 -1.222	 -0.001	  0.002	  0.002	 33.200	 99.127	 -0.505
41113	 -0.453	  0.441	  0.233	  9.695	 -0.654	 -1.242	 -0.001	  0.003	  0.000	 33.200	 99.127	 -0.505
41163	 -0.457	  0.445	  0.228	  9.660	 -0.668	 -1.232	 -0.001	  0.002	  0.001	 33.200	 99.138	 -1.502
41213	 -0.454	  0.442	  0.226	  9.683	 -0.629	 -1.250	 -0.002	  0.002	  0.001	 33.200	 99.127	 -0.505
41263	 -0.456	  0.440	  0.234	  9.686	 -0.634	 -1.215	 -0.002	  0.004	  0.000	 33.200	 99.127	 -0.505
41314	 -0.456	  0.442	  0.231	  9.676	 -0.658	 -1.237	 -0.003	  0.002	  0.001	 33.200	 99.138	 -1.502
41363	 -0.454	  0.445	  0.231	  9.670	 -0.642	 -1.237	 -0.003	  0.004	 -0.000	 33.200	 99.138	 -1.502
41412	 -0.454	  0.443	  0.231	  9.692	 -0.652	 -1.211	 -0.005	  0.003	 -0.001	 33.200	 99.111	  0.947
41462	 -0.455	  0.442	  0.228	  9.681	 -0.651	 -1.242	 -0.006	  0.001	 -0.000	 33.200	 99.122	 -0.051
41513	 -0.455	  0.446	  0.234	  9.668	 -0.664	 -1.267	 -0.006	  0.003	 -0.001	 33.200	 99.127	 -0.505
41563	 -0.453	  0.446	  0.230	  9.676	 -0.651	 -1.244	 -0.006	  0.003	 -0.000	 33.200	 99.127	 -0.505
41612	 -0.453	  0.442	  0.231	  9.678	 -0.675	 -1.242	 -0.003	  0.003	  0.000	 33.200	 99.122	 -0.051
41664	 -0.453	  0.443	  0.228	  9.659	 -0.645	 -1.226	 -0.004	  0.003	  0.001	 33.200	 99.138	 -1.502
41713	 -0.455	  0.441	  0.231	  9.672	 -0.669	 -1.229	 -0.004	  0.003	 -0.002	 33.200	 99.127	 -0.505
41763	 -0.454	  0.444	  0.230	  9.698	 -0.659	 -1.236	 -0.005	  0.003	  0.000	 33.200	 99.127	 -0.505
41814	 -0.453	  0.439	  0.229	  9.693	 -0.654	 -1.288	 -0.003	  0.002	  0.000	 33.200	 99.134	 -1.139
41864	 -0.454	  0.446	  0.230	  9.659	 -0.655	 -1.245	 -0.002	  0.003	  0.001	 33.200	 99.138	 -1.502
41914	 -0.453	  0.442	  0.228	  9.667	 -0.656	 -1.238	 -0.001	  0.002	  0.001	 33.200	 99.115	  0.584
41963	 -0.453	  0.442	  0.230	  9.674	 -0.660	 -1.265	 -0.002	  0.004	  0.001	 33.200	 99.127	 -0.505
42014	 -0.455	  0.445	  0.231	  9.695	 -0.665	 -1.245	 -0.002	  0.003	  0.002	 33.200	 99.122	 -0.051
42064	 -0.456	  0.441	  0.227	  9.683	 -0.645	 -1.209	 -0.003	  0.003	  0.002	 33.200	 99.127	 -0.505
42114	 -0.455	  0.448	  0.228	  9.671	 -0.623	 -1.215	 -0.002	  0.001	 -0.000	 33.200	 99.127	 -0.505
42164	 -0.454	  0.443	  0.230	  9.678	 -0.637	 -1.261	 -0.004	  0.002	  0.001	 33.200	 99.127	 -0.505
42213	 -0.457	  0.442	  0.231	  9.668	 -0.646	 -1.201	 -0.005	  0.003	  0.000	 33.200	 99.127	 -0.505
42263	 -0.452	  0.442	  0.230	  9.688	 -0.645	 -1.253	 -0.005	  0.003	  0.001	 33.200	 99.127	 -0.505
42313	 -0.455	  0.446	  0.229	  9.680	 -0.653	 -1.203	 -0.004	  0.002	  0.000	 33.200	 99.127	 -0.505
42363	 -0.453	  0.442	  0.228	  9.690	 -0.660	 -1.288	 -0.003	  0.003	  0.000	 33.200	 99.122	 -0.051
42413	 -0.454	  0.443	  0.229	  9.687	 -0.658	 -1.230	 -0.004	  0.002	 -0.001	 33.200	 99.127	 -0.505
42464	 -0.454	  0.443	  0.228	  9.677	 -0.657	 -1.230	 -0.003	  0.003	  0.000	 33.200	 99.127	 -0.505
42514	 -0.454	  0.443	  0.231	  9.671	 -0.635	 -1.223	 -0.003	  0.003	  0.001	 33.200	 99.122	 -0.051
42564	 -0.454	  0.445	  0.229	  9.670	 -0.644	 -1.265	 -0.004	  0.003	  0.000	 33.200	 99.138	 -1.502
42614	 -0.453	  0.443	  0.228	  9.682	 -0.632	 -1.247	 -0.004	  0.002	  0.001	 33.200	 99.122	 -0.051
42664	 -0.456	  0.441	  0.228	  9.692	 -0.649	 -1.235	 -0.003	  0.002	  0.000	 33.200	 99.127	 -0.505
42714	 -0.455	  0.441	  0.226	  9.664	 -0.643	 -1.248	 -0.003	  0.002	  0.001	 33.200	 99.122	 -0.051
42764	 -0.454	  0.447	  0.229	  9.688	 -0.629	 -1.242	 -0.002	  0.004	  0.001	 33.200	 99.127	 -0.505
42814	 -0.455	  0.442	  0.234	  9.686	 -0.651	 -1.256	 -0.003	  0.001	  0.001	 33.200	 99.127	 -0.505
42864	 -0.455	  0.441	  0.230	  9.702	 -0.637	 -1.254	 -0.004	  0.002	  0.000	 33.200	 99.115	  0.584
42914	 -0.453	  0.447	  0.228	  9.690	 -0.658	 -1.235	 -0.004	  0.003	  0.001	 33.200	 99.127	 -0.505
42964	 -0.453	  0.443	  0.228	  9.685	 -0.646	 -1.268	 -0.003	  0.004	  0.001	 33.200	 99.122	 -0.051
43014	 -0.454	  0.443	  0.228	  9.686	 -0.649	 -1.234	 -0.003	  0.003	  0.001	 33.200	 99.138	 -1.502
43064	 -0.455	  0.439	  0.228	  9.686	 -0.651	 -1.262	 -0.004	  0.002	  0.001	 33.200	 99.115	  0.584
43114	 -0.456	  0.442	  0.230	  9.689	 -0.660	 -1.241	 -0.002	  0.004	  0.000	 33.200	 99.134	 -1.139
43164	 -0.455	  0.443	  0.228	  9.689	 -0.641	 -1.226	 -0.004	  0.002	 -0.000	 33.200	 99.127	 -0.505
43214	 -0.456	  0.442	  0.229	  9.646	 -0.637	 -1.246	 -0.003	  0.001	  0.000	 33.200	 99.138	 -1.502
43264	 -0.453	  0.441	  0.228	  9.668	 -0.665	 -1.263	 -0.004	  0.001	  0.002	 33.200	 99.127	 -0.505
43314	 -0.454	  0.440	  0.227	  9.688	 -0.637	 -1.238	 -0.003	  0.003	 -0.001	 33.200	 99.122	 -0.051
43364	 -0.455	  0.447	  0.225	  9.670	 -0.639	 -1.229	 -0.003	  0.003	  0.002	 33.200	 99.122	 -0.051
43414	 -0.455	  0.445	  0.226	  9.682	 -0.660	 -1.224	 -0.003	  0.003	  0.001	 33.200	 99.115	  0.584
43464	 -0.455	  0.448	  0.230	  9.672	 -0.640	 -1.237	 -0.003	  0.003	  0.000	 33.200	 99.127	 -0.505
43514	 -0.456	  0.441	  0.227	  9.663	 -0.673	 -1.227	 -0.004	  0.003	  0.001	 33.200	 99.122	 -0.051
43564	 -0.453	  0.441	  0.228	  9.686	 -0.636	 -1.213	 -0.003	  0.002	 -0.000	 33.200	 99.127	 -0.505
43614	 -0.454	  0.445	  0.236	  9.694	 -0.665	 -1.275	 -0.004	  0.002	 -0.001	 33.200	 99.127	 -0.505
43664	 -0.453	  0.442	  0.229	  9.695	 -0.660	 -1.246	 -0.002	  0.001	 -0.001	 33.200	 99.127	 -0.505
43714	 -0.452	  0.444	  0.228	  9.678	 -0.652	 -1.191	 -0.004	  0.002	  0.002	 33.200	 99.122	 -0.051
43764	 -0.453	  0.444	  0.230	  9.679	 -0.660	 -1.237	 -0.005	  0.002	  0.000	 33.200	 99.115	  0.584
43814	 -0.454	  0.450	  0.227	  9.660	 -0.655	 -1.243	 -0.002	  0.002	 -0.001	 33.200	 99.127	 -0.505
43864	 -0.451	  0.447	  0.227	  9.701	 -0.639	 -1.249	 -0.004	  0.002	  0.000	 33.200	 99.138	 -1.502
43914	 -0.454	  0.440	  0.229	  9.680	 -0.666	 -1.302	 -0.003	  0.003	  0.002	 33.200	 99.127	 -0.505
43964	 -0.453	  0.442	  0.234	  9.677	 -0.637	 -1.285	 -0.004	  0.003	 -0.000	 33.200	 99.127	 -0.505
44013	 -0.454	  0.447	  0.231	  9.701	 -0.650	 -1.222	 -0.003	  0.003	  0.000	 33.200	 99.127	 -0.505
44063	 -0.456	  0.442	  0.227	  9.680	 -0.656	 -1.262	 -0.004	  0.003	  0.000	 33.200	 99.127	 -0.505
44113	 -0.453	  0.442	  0.230	  9.666	 -0.633	 -1.239	 -0.005	  0.002	  0.000	 33.200	 99.138	 -1.502
44163	 -0.452	  0.449	  0.231	  9.684	 -0.670	 -1.214	 -0.003	  0.004	 -0.001	 33.200	 99.127	 -0.505
44213	 -0.454	  0.441	  0.231	  9.666	 -0.665	 -1.268	 -0.003	  0.003	  0.001	 33.200	 99.122	 -0.051
44263	 -0.454	  0.441	  0.227	  9.667	 -0.643	 -1.232	 -0.003	  0.003	  0.002	 33.200	 99.134	 -1.139
44313	 -0.456	  0.439	  0.227	  9.680	 -0.652	 -1.220	 -0.003	  0.003	  0.000	 33.200	 99.138	 -1.502
44363	 -0.454	  0.440	  0.228	  9.702	 -0.629	 -1.246	 -0.004	  0.003	  0.000	 33.200	 99.122	 -0.051
44414	 -0.454	  0.448	  0.231	  9.681	 -0.674	 -1.253	 -0.003	  0.002	 -0.000	 33.200	 99.127	 -0.505
44464	 -0.452	  0.441	  0.230	  9.676	 -0.648	 -1.245	 -0.005	  0.002	 -0.000	 33.200	 99.122	 -0.051
44514	 -0.454	  0.444	  0.229	  9.686	 -0.665	 -1.213	 -0.002	  0.002	  0.001	 33.200	 99.138	 -1.502
44563	 -0.454	  0.441	  0.230	  9.676	 -0.663	 -1.213	 -0.003	  0.002	 -0.000	 33.200	 99.127	 -0.505
44613	 -0.452	  0.443	  0.227	  9.669	 -0.655	 -1.207	 -0.003	  0.002	  0.001	 33.200	 99.127	 -0.505
44663	 -0.454	  0.443	  0.230	  9.663	 -0.645	 -1.230	 -0.003	  0.002	  0.000	 33.200	 99.122	 -0.051
44713	 -0.454	  0.446	  0.228	  9.688	 -0.644	 -1.254	 -0.004	  0.003	 -0.000	 33.200	 99.122	 -0.051
44763	 -0.455	  0.444	  0.225	  9.684	 -0.654	 -1.259	 -0.003	  0.004	  0.001	 33.200	 99.115	  0.584
44813	 -0.456	  0.443	  0.226	  9.686	 -0.657	 -1.241	 -0.003	  0.003	  0.001	 33.200	 99.127	 -0.505
44863	 -0.454	  0.442	  0.231	  9.672	 -0.631	 -1.186	 -0.003	  0.001	 -0.001	 33.200	 99.127	 -0.505
44913	 -0.455	  0.443	  0.230	  9.677	 -0.667	 -1.261	 -0.004	  0.002	  0.001	 33.200	 99.122	 -0.051
44963	 -0.455	  0.451	  0.231	  9.669	 -0.658	 -1.245	 -0.003	  0.003	  0.000	 33.200	 99.127	 -0.505
45013	 -0.454	  0.445	  0.230	  9.686	 -0.654	 -1.227	 -0.003	  0.002	  0.001	 33.200	 99.127	 -0.505
45063	 -0.452	  0.443	  0.230	  9.685	 -0.662	 -1.226	 -0.003	  0.003	 -0.001	 33.200	 99.122	 -0.051
45113	 -0.453	  0.445	  0.229	  9.676	 -0.654	 -1.226	 -0.004	  0.002	  0.001	 33.200	 99.127	 -0.505
45164	 -0.454	  0.443	  0.231	  9.684	 -0.658	 -1.231	 -0.003	  0.003	  0.000	 33.200	 99.127	 -0.505
45214	 -0.455	  0.442	  0.231	  9.681	 -0.650	 -1.237	 -0.003	  0.003	  0.001	 33.200	 99.127	 -0.505
45263	 -0.453	  0.443	  0.230	  9.679	 -0.626	 -1.220	 -0.002	  0.002	  0.001	 33.200	 99.115	  0.584
45313	 -0.456	  0.445	  0.226	  9.684	 -0.655	 -1.253	 -0.003	  0.003	  0.001	 33.200	 99.131	 -0.867
45363	 -0.455	  0.447	  0.233	  9.686	 -0.666	 -1.255	 -0.001	  0.003	  0.001	 33.200	 99.115	  0.584
45413	 -0.455	  0.444	  0.226	  9.665	 -0.650	 -1.216	 -0.003	  0.002	 -0.000	 33.200	 99.115	  0.584
45463	 -0.456	  0.445	  0.232	  9.664	 -0.651	 -1.241	 -0.006	  0.003	 -0.001	 33.200	 99.138	 -1.502
45513	 -0.455	  0.444	  0.230	  9.707	 -0.685	 -1.226	 -0.003	  0.003	 -0.000	 33.200	 99.138	 -1.502
45563	 -0.453	  0.443	  0.228	  9.677	 -0.660	 -1.229	 -0.002	  0.002	  0.000	 33.200	 99.115	  0.584
45613	 -0.453	  0.449	  0.228	  9.692	 -0.629	 -1.241	 -0.004	  0.003	  0.001	 33.200	 99.127	 -0.505
45663	 -0.457	  0.441	  0.232	  9.669	 -0.649	 -1.215	 -0.003	  0.002	  0.001	 33.200	 99.122	 -0.051
45713	 -0.455	  0.444	  0.228	  9.681	 -0.643	 -1.243	 -0.004	  0.002	  0.001	 33.200	 99.127	 -0.505
45763	 -0.453	  0.447	  0.231	  9.671	 -0.642	 -1.261	 -0.005	  0.002	 -0.000	 33.200	 99.127	 -0.505
45813	 -0.455	  0.443	  0.233	  9.670	 -0.654	 -1.265	 -0.003	  0.002	  0.001	 33.200	 99.127	 -0.505
45863	 -0.458	  0.455	  0.231	  9.681	 -0.645	 -1.281	 -0.003	  0.002	 -0.000	 33.200	 99.127	 -0.505
45913	 -0.453	  0.442	  0.233	  9.689	 -0.614	 -1.214	 -0.003	  0.002	  0.000	 33.200	 99.127	 -0.505
45963	 -0.457	  0.444	  0.229	  9.686	 -0.641	 -1.240	 -0.003	  0.004	  0.000	 33.200	 99.127	 -0.505
46013	 -0.455	  0.444	  0.230	  9.688	 -0.635	 -1.215	 -0.003	  0.002	  0.001	 33.200	 99.111	  0.947
46063	 -0.455	  0.443	  0.228	  9.687	 -0.637	 -1.237	 -0.004	  0.002	  0.000	 33.200	 99.115	  0.584
46113	 -0.454	  0.444	  0.233	  9.678	 -0.646	 -1.206	 -0.002	  0.003	  0.000	 33.200	 99.131	 -0.867
46163	 -0.454	  0.446	  0.229	  9.682	 -0.651	 -1.252	 -0.004	  0.002	  0.001	 33.200	 99.115	  0.584
46213	 -0.454	  0.445	  0.231	  9.669	 -0.654	 -1.243	 -0.003	  0.002	  0.001	 33.200	 99.127	 -0.505
46263	 -0.454	  0.440	  0.233	  9.681	 -0.664	 -1.243	 -0.004	  0.002	 -0.001	 33.200	 99.111	  0.947
46313	 -0.456	  0.454	  0.232	  9.671	 -0.638	 -1.237	 -0.003	  0.002	 -0.001	 33.200	 99.127	 -0.505
46363	 -0.454	  0.442	  0.233	  9.690	 -0.670	 -1.240	 -0.004	  0.003	 -0.001	 33.200	 99.127	 -0.505
46413	 -0.456	  0.443	  0.229	  9.675	 -0.645	 -1.260	 -0.003	  0.002	  0.002	 33.200	 99.115	  0.584
46463	 -0.456	  0.441	  0.226	  9.691	 -0.634	 -1.227	 -0.004	  0.003	  0.001	 33.200	 99.127	 -0.505
46513	 -0.456	  0.447	  0.230	  9.683	 -0.654	 -1.242	 -0.004	  0.003	  0.001	 33.200	 99.127	 -0.505
46563	 -0.453	  0.446	  0.229	  9.683	 -0.635	 -1.251	 -0.003	  0.003	  0.001	 33.200	 99.115	  0.584
46613	 -0.456	  0.443	  0.230	  9.683	 -0.650	 -1.228	 -0.004	  0.003	 -0.000	 33.200	 99.127	 -0.505
46664	 -0.454	  0.451	  0.230	  9.685	 -0.648	 -1.232	 -0.003	  0.004	  0.001	 33.200	 99.115	  0.584
46713	 -0.453	  0.447	  0.230	  9.694	 -0.666	 -1.238	 -0.004	  0.001	  0.000	 33.200	 99.127	 -0.505
46764	 -0.455	  0.443	  0.230	  9.662	 -0.657	 -1.249	 -0.004	  0.001	 -0.000	 33.200	 99.111	  0.947
46813	 -0.454	  0.443	  0.230	  9.667	 -0.643	 -1.251	 -0.004	  0.004	 -0.001	 33.200	 99.115	  0.584
46863	 -0.455	  0.443	  0.225	  9.673	 -0.658	 -1.209	 -0.003	  0.001	 -0.001	 33.200	 99.127	 -0.505
46913	 -0.456	  0.444	  0.231	  9.677	 -0.645	 -1.252	 -0.003	  0.002	  0.000	 33.200	 99.142	 -1.864
46963	 -0.454	  0.442	  0.229	  9.677	 -0.649	 -1.242	 -0.004	  0.002	  0.001	 33.200	 99.115	  0.584
47013	 -0.454	  0.442	  0.229	  9.687	 -0.661	 -1.237	 -0.006	  0.002	  0.001	 33.200	 99.111	  0.947
47063	 -0.454	  0.449	  0.234	  9.710	 -0.661	 -1.240	 -0.002	  0.002	  0.001	 33.200	 99.115	  0.584
47114	 -0.452	  0.447	  0.229	  9.686	 -0.649	 -1.235	 -0.004	  0.003	 -0.001	 33.200	 99.115	  0.584
47163	 -0.453	  0.440	  0.230	  9.687	 -0.653	 -1.257	 -0.005	  0.003	  0.000	 33.200	 99.127	 -0.505
47214	 -0.451	  0.447	  0.233	  9.674	 -0.668	 -1.247	 -0.003	  0.002	  0.000	 33.200	 99.115	  0.584
47264	 -0.456	  0.449	  0.231	  9.681	 -0.629	 -1.266	 -0.003	  0.003	  0.000	 33.200	 99.127	 -0.505
47314	 -0.455	  0.442	  0.228	  9.677	 -0.663	 -1.220	 -0.003	  0.003	 -0.000	 33.200	 99.111	  0.947
47364	 -0.455	  0.443	  0.230	  9.668	 -0.643	 -1.272	 -0.004	  0.002	  0.000	 33.200	 99.115	  0.584
47414	 -0.453	  0.442	  0.229	  9.687	 -0.666	 -1.257	 -0.003	  0.003	  0.000	 33.200	 99.115	  0.584
47464	 -0.454	  0.443	  0.230	  9.675	 -0.640	 -1.240	 -0.003	  0.001	  0.000	 33.200	 99.115	  0.584
47514	 -0.456	  0.452	  0.229	  9.698	 -0.639	 -1.212	 -0.003	  0.004	  0.001	 33.200	 99.115	  0.584
47564	 -0.454	  0.445	  0.228	  9.678	 -0.660	 -1.247	 -0.002	  0.003	  0.001	 33.200	 99.127	 -0.505
47614	 -0.453	  0.445	  0.228	  9.697	 -0.629	 -1.254	 -0.003	  0.004	  0.001	 33.200	 99.115	  0.584
47664	 -0.456	  0.443	  0.226	  9.672	 -0.658	 -1.256	 -0.003	  0.004	 -0.000	 33.200	 99.127	 -0.505
47714	 -0.454	  0.447	  0.233	  9.690	 -0.656	 -1.252	 -0.005	  0.003	  0.001	 33.200	 99.122	 -0.051
47764	 -0.456	  0.445	  0.230	  9.675	 -0.658	 -1.255	 -0.002	  0.002	  0.000	 33.200	 99.115	  0.584
47814	 -0.455	  0.442	  0.230	  9.682	 -0.640	 -1.227	 -0.005	  0.004	  0.001	 33.200	 99.115	  0.584
47864	 -0.455	  0.446	  0.229	  9.695	 -0.663	 -1.253	 -0.005	  0.001	  0.001	 33.200	 99.127	 -0.505
47914	 -0.453	  0.443	  0.229	  9.680	 -0.646	 -1.255	 -0.005	  0.003	  0.001	 33.200	 99.127	 -0.505
47964	 -0.455	  0.444	  0.229	  9.647	 -0.640	 -1.265	 -0.003	  0.002	  0.000	 33.200	 99.138	 -1.502
48013	 -0.454	  0.443	  0.223	  9.687	 -0.641	 -1.237	 -0.003	  0.003	  0.002	 33.200	 99.127	 -0.505
48063	 -0.456	  0.442	  0.226	  9.689	 -0.656	 -1.267	 -0.003	  0.002	 -0.000	 33.200	 99.127	 -0.505
48113	 -0.453	  0.445	  0.228	  9.681	 -0.635	 -1.234	 -0.005	  0.002	  0.000	 33.200	 99.127	 -0.505
48164	 -0.453	  0.446	  0.231	  9.691	 -0.646	 -1.245	 -0.003	  0.004	  0.000	 33.200	 99.115	  0.584
48214	 -0.454	  0.444	  0.226	  9.676	 -0.664	 -1.249	 -0.003	  0.003	  0.000	 33.200	 99.115	  0.584
48263	 -0.455	  0.442	  0.226	  9.688	 -0.656	 -1.259	 -0.003	  0.003	 -0.000	 33.200	 99.115	  0.584
48313	 -0.456	  0.444	  0.228	  9.683	 -0.657	 -1.219	 -0.004	  0.001	  0.002	 33.200	 99.127	 -0.505
48364	 -0.455	  0.442	  0.231	  9.672	 -0.656	 -1.199	 -0.002	  0.003	  0.001	 33.200	 99.115	  0.584
48413	 -0.453	  0.445	  0.231	  9.667	 -0.646	 -1.204	 -0.005	  0.003	  0.000	 33.200	 99.127	 -0.505
48464	 -0.457	  0.442	  0.229	  9.671	 -0.646	 -1.252	 -0.003	  0.002	  0.000	 33.200	 99.115	  0.584
48514	 -0.456	  0.441	  0.230	  9.680	 -0.651	 -1.250	 -0.004	  0.004	  0.000	 33.200	 99.127	 -0.505
48563	 -0.456	  0.456	  0.228	  9.699	 -0.645	 -1.263	 -0.004	  0.003	 -0.000	 33.200	 99.115	  0.584
48614	 -0.455	  0.445	  0.228	  9.707	 -0.656	 -1.238	 -0.003	  0.003	  0.000	 33.200	 99.111	  0.947
48663	 -0.451	  0.443	  0.229	  9.674	 -0.664	 -1.240	 -0.003	  0.004	  0.000	 33.200	 99.115	  0.584
48713	 -0.456	  0.443	  0.223	  9.692	 -0.662	 -1.246	 -0.005	  0.004	  0.000	 33.200	 99.111	  0.947
48763	 -0.455	  0.448	  0.228	  9.660	 -0.667	 -1.244	 -0.004	  0.003	  0.001	 33.200	 99.127	 -0.505
48813	 -0.455	  0.441	  0.226	  9.693	 -0.653	 -1.250	 -0.004	  0.001	  0.001	 33.200	 99.127	 -0.505
48863	 -0.453	  0.443	  0.227	  9.662	 -0.642	 -1.241	 -0.004	  0.003	  0.001	 33.200	 99.115	  0.584
48913	 -0.457	  0.440	  0.227	  9.687	 -0.654	 -1.231	 -0.003	  0.003	 -0.000	 33.200	 99.127	 -0.505
48963	 -0.455	  0.441	  0.229	  9.673	 -0.679	 -1.244	 -0.003	  0.002	  0.000	 33.200	 99.115	  0.584
49013	 -0.454	  0.446	  0.226	  9.670	 -0.631	 -1.237	 -0.003	  0.002	  0.001	 33.200	 99.115	  0.584
49063	 -0.454	  0.444	  0.231	  9.677	 -0.645	 -1.270	 -0.004	  0.004	  0.001	 33.200	 99.115	  0.584
49113	 -0.454	  0.446	  0.229	  9.693	 -0.646	 -1.235	 -0.003	  0.002	  0.002	 33.200	 99.127	 -0.505
49163	 -0.455	  0.440	  0.225	  9.680	 -0.648	 -1.246	 -0.004	  0.003	  0.000	 33.200	 99.127	 -0.505
49213	 -0.454	  0.446	  0.230	  9.696	 -0.669	 -1.235	 -0.004	  0.004	  0.000	 33.200	 99.127	 -0.505
49263	 -0.453	  0.442	  0.230	  9.672	 -0.664	 -1.258	 -0.004	  0.003	  0.001	 33.200	 99.127	 -0.505
49313	 -0.454	  0.444	  0.229	  9.654	 -0.646	 -1.200	 -0.004	  0.002	 -0.000	 33.200	 99.115	  0.584
49363	 -0.453	  0.450	  0.230	  9.673	 -0.641	 -1.286	 -0.004	  0.004	  0.001	 33.200	 99.115	  0.584
49413	 -0.452	  0.443	  0.231	  9.675	 -0.671	 -1.251	 -0.003	  0.003	  0.000	 33.200	 99.115	  0.584
49463	 -0.457	  0.441	  0.227	  9.699	 -0.640	 -1.265	 -0.004	  0.002	  0.000	 33.200	 99.127	 -0.505
49513	 -0.454	  0.444	  0.234	  9.674	 -0.672	 -1.262	 -0.003	  0.002	  0.000	 33.200	 99.115	  0.584
49563	 -0.454	  0.440	  0.227	  9.668	 -0.649	 -1.240	 -0.003	  0.003	  0.000	 33.200	 99.127	 -0.505
49613	 -0.455	  0.441	  0.226	  9.689	 -0.650	 -1.200	 -0.004	  0.003	  0.001	 33.200	 99.127	 -0.505
49664	 -0.453	  0.448	  0.230	  9.691	 -0.641	 -1.246	 -0.003	  0.003	  0.001	 33.200	 99.115	  0.584
49714	 -0.454	  0.446	  0.231	  9.702	 -0.656	 -1.226	 -0.003	  0.003	 -0.000	 33.200	 99.127	 -0.505
49763	 -0.456	  0.451	  0.230	  9.682	 -0.648	 -1.263	 -0.003	  0.002	  0.001	 33.200	 99.127	 -0.505
49813	 -0.453	  0.444	  0.231	  9.666	 -0.651	 -1.228	 -0.004	  0.002	 -0.000	 33.200	 99.115	  0.584
49863	 -0.455	  0.446	  0.230	  9.681	 -0.671	 -1.225	 -0.004	  0.003	  0.000	 33.200	 99.127	 -0.505
49913	 -0.455	  0.448	  0.227	  9.670	 -0.686	 -1.270	 -0.003	  0.003	  0.001	 33.200	 99.127	 -0.505
49963	 -0.453	  0.445	  0.226	  9.690	 -0.657	 -1.254	 -0.003	  0.002	 -0.001	 33.200	 99.127	 -0.505
50013	 -0.453	  0.444	  0.228	  9.710	 -0.647	 -1.216	 -0.003	  0.002	  0.000	 33.200	 99.127	 -0.505
50063	 -0.456	  0.438	  0.230	  9.689	 -0.642	 -1.201	 -0.004	  0.002	  0.001	 33.200	 99.115	  0.584
50113	 -0.453	  0.441	  0.231	  9.684	 -0.678	 -1.274	 -0.003	  0.003	  0.001	 33.200	 99.127	 -0.505
50163	 -0.454	  0.447	  0.230	  9.708	 -0.663	 -1.196	 -0.003	  0.003	  0.000	 33.200	 99.127	 -0.505
50213	 -0.454	  0.440	  0.231	  9.678	 -0.670	 -1.198	 -0.003	  0.002	  0.001	 33.200	 99.127	 -0.505
50263	 -0.456	  0.446	  0.227	  9.691	 -0.666	 -1.231	 -0.004	  0.001	  0.002	 33.200	 99.127	 -0.505
50313	 -0.456	  0.444	  0.228	  9.669	 -0.637	 -1.244	 -0.003	  0.003	 -0.000	 33.200	 99.119	  0.221
50363	 -0.453	  0.447	  0.231	  9.675	 -0.654	 -1.237	 -0.002	  0.003	 -0.000	 33.200	 99.127	 -0.505
50413	 -0.455	  0.445	  0.230	  9.696	 -0.652	 -1.195	 -0.004	  0.003	  0.000	 33.200	 99.127	 -0.505
50463	 -0.453	  0.446	  0.229	  9.676	 -0.648	 -1.271	 -0.003	  0.003	  0.000	 33.200	 99.127	 -0.505
50513	 -0.456	  0.444	  0.229	  9.680	 -0.658	 -1.233	 -0.003	  0.002	  0.000	 33.200	 99.115	  0.584
50563	 -0.453	  0.443	  0.231	  9.675	 -0.655	 -1.251	 -0.004	  0.003	  0.001	 33.200	 99.115	  0.584
50613	 -0.453	  0.446	  0.233	  9.691	 -0.626	 -1.245	 -0.004	  0.003	  0.000	 33.200	 99.127	 -0.505
50663	 -0.455	  0.440	  0.229	  9.699	 -0.634	 -1.262	 -0.004	  0.002	  0.001	 33.200	 99.127	 -0.505
50713	 -0.454	  0.444	  0.229	  9.663	 -0.652	 -1.237	 -0.002	  0.003	  0.001	 33.200	 99.127	 -0.505
50763	 -0.453	  0.444	  0.229	  9.685	 -0.638	 -1.215	 -0.003	  0.003	 -0.000	 33.200	 99.138	 -1.502
50813	 -0.455	  0.442	  0.225	  9.698	 -0.650	 -1.256	 -0.004	  0.002	 -0.001	 33.200	 99.115	  0.584
50863	 -0.455	  0.440	  0.226	  9.683	 -0.643	 -1.231	 -0.004	  0.002	  0.000	 33.200	 99.127	 -0.505
50913	 -0.455	  0.444	  0.230	  9.676	 -0.628	 -1.255	 -0.003	  0.002	  0.000	 33.200	 99.127	 -0.505
50963	 -0.455	  0.442	  0.230	  9.680	 -0.677	 -1.201	 -0.003	  0.002	  0.001	 33.200	 99.138	 -1.502
51013	 -0.454	  0.441	  0.231	  9.692	 -0.652	 -1.230	 -0.005	  0.003	  0.000	 33.200	 99.127	 -0.505
51063	 -0.454	  0.442	  0.228	  9.692	 -0.647	 -1.221	 -0.003	  0.003	 -0.001	 33.200	 99.115	  0.584
51113	 -0.453	  0.447	  0.230	  9.675	 -0.647	 -1.242	 -0.003	  0.003	  0.000	 33.200	 99.115	  0.584
51163	 -0.454	  0.446	  0.226	  9.674	 -0.659	 -1.256	 -0.002	  0.002	  0.000	 33.200	 99.131	 -0.867
51213	 -0.453	  0.442	  0.230	  9.678	 -0.652	 -1.265	 -0.003	  0.003	  0.001	 33.200	 99.127	 -0.505
51263	 -0.454	  0.447	  0.230	  9.677	 -0.662	 -1.240	 -0.003	  0.003	  0.000	 33.200	 99.115	  0.584
51313	 -0.454	  0.447	  0.233	  9.668	 -0.648	 -1.254	 -0.003	  0.003	  0.001	 33.200	 99.127	 -0.505
51363	 -0.454	  0.449	  0.231	  9.689	 -0.655	 -1.249	 -0.003	  0.001	  0.000	 33.200	 99.115	  0.584
51413	 -0.453	  0.445	  0.229	  9.677	 -0.648	 -1.242	 -0.004	  0.003	  0.002	 33.200	 99.127	 -0.505
51463	 -0.455	  0.445	  0.230	  9.678	 -0.661	 -1.272	 -0.003	  0.003	  0.001	 33.200	 99.115	  0.584
51513	 -0.455	  0.443	  0.228	  9.669	 -0.674	 -1.230	 -0.003	  0.004	  0.001	 33.200	 99.131	 -0.867
51563	 -0.453	  0.445	  0.229	  9.668	 -0.664	 -1.257	 -0.003	  0.002	 -0.000	 33.200	 99.127	 -0.505
51613	 -0.455	  0.442	  0.231	  9.683	 -0.646	 -1.239	 -0.003	  0.003	  0.001	 33.200	 99.127	 -0.505
51663	 -0.454	  0.447	  0.230	  9.704	 -0.622	 -1.215	 -0.004	  0.004	  0.001	 33.200	 99.127	 -0.505
51713	 -0.453	  0.448	  0.229	  9.698	 -0.661	 -1.256	 -0.003	  0.003	  0.001	 33.200	 99.127	 -0.505
51763	 -0.455	  0.440	  0.230	  9.666	 -0.641	 -1.235	 -0.004	  0.003	  0.001	 33.200	 99.127	 -0.505
51813	 -0.454	  0.443	  0.229	  9.671	 -0.634	 -1.253	 -0.002	  0.002	 -0.000	 33.200	 99.127	 -0.505
51863	 -0.455	  0.441	  0.228	  9.654	 -0.653	 -1.229	 -0.003	  0.003	 -0.000	 33.200	 99.127	 -0.505
51913	 -0.454	  0.445	  0.230	  9.691	 -0.663	 -1.236	 -0.003	  0.002	 -0.000	 33.200	 99.111	  0.947
51963	 -0.454	  0.441	  0.229	  9.665	 -0.655	 -1.242	 -0.005	  0.002	 -0.000	 33.200	 99.127	 -0.505
52013	 -0.456	  0.442	  0.227	  9.676	 -0.660	 -1.260	 -0.004	  0.004	  0.001	 33.200	 99.138	 -1.502
52063	 -0.456	  0.443	  0.228	  9.702	 -0.662	 -1.240	 -0.004	  0.003	  0.001	 33.200	 99.131	 -0.867
52113	 -0.456	  0.445	  0.230	  9.681	 -0.650	 -1.253	 -0.004	  0.002	  0.001	 33.200	 99.115	  0.584
52163	 -0.455	  0.442	  0.228	  9.675	 -0.646	 -1.232	 -0.003	  0.004	  0.001	 33.200	 99.115	  0.584
52214	 -0.456	  0.441	  0.228	  9.699	 -0.652	 -1.247	 -0.005	  0.002	  0.001	 33.200	 99.127	 -0.505
52263	 -0.455	  0.446	  0.230	  9.672	 -0.656	 -1.238	 -0.003	  0.003	  0.000	 33.200	 99.115	  0.584
52314	 -0.454	  0.449	  0.229	  9.704	 -0.646	 -1.220	 -0.003	  0.004	  0.002	 33.200	 99.127	 -0.505
52363	 -0.455	  0.443	  0.229	  9.663	 -0.642	 -1.239	 -0.002	  0.003	  0.000	 33.200	 99.115	  0.584
52413	 -0.456	  0.446	  0.229	  9.683	 -0.648	 -1.251	 -0.004	  0.002	  0.000	 33.200	 99.127	 -0.505
52463	 -0.454	  0.442	  0.229	  9.701	 -0.640	 -1.255	 -0.003	  0.002	  0.001	 33.200	 99.127	 -0.505
52513	 -0.452	  0.442	  0.228	  9.694	 -0.654	 -1.232	 -0.004	  0.002	 -0.000	 33.200	 99.127	 -0.505
52564	 -0.453	  0.444	  0.230	  9.713	 -0.651	 -1.226	 -0.004	  0.003	  0.001	 33.200	 99.127	 -0.505
52613	 -0.454	  0.444	  0.230	  9.673	 -0.643	 -1.248	 -0.002	  0.001	  0.001	 33.200	 99.131	 -0.867
52664	 -0.454	  0.447	  0.229	  9.683	 -0.647	 -1.244	 -0.004	  0.003	  0.000	 33.200	 99.127	 -0.505
52714	 -0.455	  0.444	  0.229	  9.678	 -0.665	 -1.254	 -0.004	  0.003	 -0.001	 33.200	 99.127	 -0.505
52764	 -0.454	  0.441	  0.228	  9.672	 -0.665	 -1.225	 -0.004	  0.003	  0.001	 33.200	 99.115	  0.584
52814	 -0.454	  0.441	  0.227	  9.688	 -0.657	 -1.265	 -0.005	  0.002	 -0.001	 33.200	 99.127	 -0.505
52864	 -0.454	  0.446	  0.227	  9.682	 -0.642	 -1.211	 -0.004	  0.002	 -0.000	 33.200	 99.127	 -0.505
52914	 -0.455	  0.443	  0.226	  9.663	 -0.634	 -1.233	 -0.003	  0.002	 -0.000	 33.200	 99.127	 -0.505
52964	 -0.455	  0.444	  0.227	  9.694	 -0.651	 -1.245	 -0.003	  0.002	  0.000	 33.200	 99.127	 -0.505
53014	 -0.454	  0.441	  0.230	  9.681	 -0.660	 -1.222	 -0.004	  0.004	  0.001	 33.200	 99.127	 -0.505
53064	 -0.455	  0.442	  0.229	  9.696	 -0.654	 -1.243	 -0.003	  0.003	  0.001	 33.200	 99.127	 -0.505
53114	 -0.454	  0.447	  0.228	  9.683	 -0.645	 -1.223	 -0.003	  0.002	  0.001	 33.200	 99.138	 -1.502
53164	 -0.454	  0.448	  0.227	  9.660	 -0.635	 -1.225	 -0.003	  0.003	  0.000	 33.200	 99.131	 -0.867
53214	 -0.455	  0.442	  0.231	  9.679	 -0.655	 -1.265	 -0.003	  0.002	 -0.000	 33.200	 99.127	 -0.505
53264	 -0.452	  0.443	  0.227	  9.680	 -0.672	 -1.209	 -0.003	  0.003	 -0.001	 33.200	 99.127	 -0.505
53314	 -0.454	  0.445	  0.230	  9.690	 -0.660	 -1.228	 -0.004	  0.002	 -0.000	 33.200	 99.115	  0.584
53364	 -0.455	  0.445	  0.223	  9.696	 -0.651	 -1.241	 -0.003	  0.002	  0.002	 33.200	 99.115	  0.584
53414	 -0.457	  0.442	  0.226	  9.693	 -0.662	 -1.266	 -0.004	  0.002	  0.000	 33.200	 99.115	  0.584
53464	 -0.455	  0.441	  0.228	  9.692	 -0.675	 -1.253	 -0.003	  0.002	  0.001	 33.200	 99.127	 -0.505
53515	 -0.453	  0.443	  0.231	  9.666	 -0.658	 -1.225	 -0.002	  0.003	  0.001	 33.200	 99.131	 -0.867
53564	 -0.453	  0.446	  0.229	  9.674	 -0.653	 -1.284	 -0.003	  0.003	  0.001	 33.200	 99.127	 -0.505
53614	 -0.453	  0.447	  0.229	  9.648	 -0.635	 -1.244	 -0.004	  0.003	  0.000	 33.200	 99.127	 -0.505
53664	 -0.455	  0.444	  0.231	  9.700	 -0.666	 -1.214	 -0.002	  0.002	  0.001	 33.200	 99.127	 -0.505
53714	 -0.454	  0.447	  0.231	  9.683	 -0.654	 -1.220	 -0.004	  0.003	  0.001	 33.200	 99.115	  0.584
53764	 -0.456	  0.447	  0.230	  9.692	 -0.657	 -1.214	 -0.003	  0.003	 -0.001	 33.200	 99.127	 -0.505
53814	 -0.452	  0.448	  0.229	  9.669	 -0.650	 -1.218	 -0.004	  0.002	 -0.000	 33.200	 99.115	  0.584
53864	 -0.455	  0.451	  0.231	  9.705	 -0.647	 -1.256	 -0.003	  0.003	  0.000	 33.200	 99.127	 -0.505
53914	 -0.455	  0.446	  0.227	  9.679	 -0.663	 -1.244	 -0.003	  0.003	  0.001	 33.200	 99.127	 -0.505
53964	 -0.453	  0.442	  0.226	  9.676	 -0.645	 -1.240	 -0.004	  0.003	  0.000	 33.200	 99.127	 -0.505
54014	 -0.454	  0.443	  0.228	  9.683	 -0.678	 -1.243	 -0.004	  0.003	  0.001	 33.200	 99.127	 -0.505
54064	 -0.453	  0.445	  0.229	  9.673	 -0.661	 -1.225	 -0.005	  0.003	  0.001	 33.200	 99.127	 -0.505
54114	 -0.455	  0.452	  0.230	  9.675	 -0.672	 -1.218	 -0.003	  0.003	 -0.001	 33.200	 99.127	 -0.505
54163	 -0.456	  0.446	  0.231	  9.664	 -0.637	 -1.277	 -0.003	  0.002	  0.001	 33.200	 99.127	 -0.505
54213	 -0.453	  0.450	  0.230	  9.675	 -0.656	 -1.231	 -0.005	  0.002	  0.001	 33.200	 99.115	  0.584
54263	 -0.454	  0.444	  0.226	  9.688	 -0.648	 -1.264	 -0.003	  0.002	  0.001	 33.200	 99.115	  0.584
54314	 -0.455	  0.443	  0.231	  9.696	 -0.640	 -1.275	 -0.002	  0.002	  0.001	 33.200	 99.115	  0.584
54363	 -0.452	  0.445	  0.230	  9.711	 -0.648	 -1.237	 -0.002	  0.003	  0.001	 33.200	 99.122	 -0.051
54413	 -0.455	  0.446	  0.229	  9.686	 -0.639	 -1.228	 -0.003	  0.003	  0.001	 33.200	 99.115	  0.584
54464	 -0.454	  0.446	  0.233	  9.671	 -0.659	 -1.230	 -0.003	  0.003	  0.000	 33.200	 99.115	  0.584
54514	 -0.456	  0.443	  0.231	  9.671	 -0.640	 -1.249	 -0.003	  0.003	 -0.000	 33.200	 99.127	 -0.505
54564	 -0.456	  0.446	  0.230	  9.656	 -0.633	 -1.230	 -0.004	  0.002	  0.000	 33.200	 99.131	 -0.867
54614	 -0.455	  0.445	  0.230	  9.709	 -0.656	 -1.266	 -0.004	  0.003	  0.001	 33.200	 99.127	 -0.505
54664	 -0.455	  0.442	  0.235	  9.666	 -0.644	 -1.218	 -0.004	  0.003	  0.000	 33.200	 99.115	  0.584
54714	 -0.455	  0.446	  0.231	  9.675	 -0.629	 -1.216	 -0.004	  0.002	  0.001	 33.200	 99.127	 -0.505
54763	 -0.455	  0.446	  0.230	  9.692	 -0.675	 -1.268	 -0.004	  0.004	 -0.000	 33.200	 99.131	 -0.867
54813	 -0.454	  0.446	  0.230	  9.675	 -0.632	 -1.246	 -0.004	  0.003	  0.000	 33.200	 99.138	 -1.502
54864	 -0.454	  0.442	  0.229	  9.674	 -0.645	 -1.248	 -0.004	  0.003	  0.002	 33.200	 99.127	 -0.505
54914	 -0.456	  0.443	  0.230	  9.681	 -0.649	 -1.276	 -0.002	  0.002	  0.001	 33.200	 99.127	 -0.505
54964	 -0.456	  0.446	  0.231	  9.681	 -0.634	 -1.241	 -0.004	  0.005	  0.000	 33.200	 99.127	 -0.505
55014	 -0.453	  0.451	  0.226	  9.700	 -0.642	 -1.241	 -0.003	  0.002	  0.000	 33.200	 99.127	 -0.505
55063	 -0.455	  0.442	  0.233	  9.692	 -0.652	 -1.237	 -0.003	  0.003	 -0.000	 33.200	 99.115	  0.584
55113	 -0.454	  0.446	  0.230	  9.685	 -0.644	 -1.205	 -0.005	  0.001	  0.001	 33.200	 99.115	  0.584
55163	 -0.454	  0.447	  0.227	  9.673	 -0.635	 -1.221	 -0.004	  0.003	  0.001	 33.200	 99.119	  0.221
55213	 -0.452	  0.446	  0.227	  9.681	 -0.652	 -1.275	 -0.003	  0.004	  0.000	 33.200	 99.127	 -0.505
55263	 -0.453	  0.445	  0.229	  9.683	 -0.658	 -1.258	 -0.003	  0.003	  0.001	 33.200	 99.127	 -0.505
55313	 -0.456	  0.441	  0.230	  9.686	 -0.653	 -1.205	 -0.003	  0.002	  0.001	 33.200	 99.127	 -0.505
55364	 -0.455	  0.442	  0.225	  9.671	 -0.671	 -1.253	 -0.003	  0.003	  0.001	 33.200	 99.131	 -0.867
55414	 -0.454	  0.446	  0.229	  9.681	 -0.622	 -1.237	 -0.004	  0.002	  0.001	 33.200	 99.127	 -0.505
55464	 -0.455	  0.443	  0.233	  9.674	 -0.658	 -1.245	 -0.004	  0.001	  0.001	 33.200	 99.115	  0.584
55514	 -0.453	  0.444	  0.228	  9.682	 -0.629	 -1.247	 -0.003	  0.002	  0.001	 33.200	 99.138	 -1.502
55563	 -0.456	  0.444	  0.229	  9.651	 -0.648	 -1.208	 -0.003	  0.002	  0.001	 33.200	 99.115	  0.584
55614	 -0.454	  0.444	  0.229	  9.697	 -0.656	 -1.214	 -0.005	  0.002	  0.001	 33.200	 99.127	 -0.505
55664	 -0.455	  0.443	  0.223	  9.676	 -0.670	 -1.235	 -0.003	  0.002	  0.001	 33.200	 99.115	  0.584
55714	 -0.457	  0.446	  0.224	  9.693	 -0.669	 -1.262	 -0.002	  0.002	 -0.001	 33.200	 99.127	 -0.505
55763	 -0.454	  0.451	  0.235	  9.688	 -0.663	 -1.243	 -0.003	  0.003	  0.000	 33.200	 99.115	  0.584
55813	 -0.455	  0.446	  0.229	  9.684	 -0.643	 -1.260	 -0.003	  0.002	  0.001	 33.200	 99.127	 -0.505
55863	 -0.454	  0.447	  0.233	  9.688	 -0.667	 -1.256	 -0.003	  0.003	  0.000	 33.200	 99.131	 -0.867
55913	 -0.455	  0.442	  0.233	  9.669	 -0.675	 -1.233	 -0.003	  0.002	  0.000	 33.200	 99.115	  0.584
55963	 -0.453	  0.447	  0.227	  9.690	 -0.653	 -1.246	 -0.003	  0.003	  0.000	 33.200	 99.127	 -0.505
56013	 -0.455	  0.444	  0.230	  9.679	 -0.672	 -1.271	 -0.003	  0.002	  0.001	 33.200	 99.127	 -0.505
56063	 -0.455	  0.448	  0.231	  9.691	 -0.650	 -1.275	 -0.003	  0.003	  0.000	 33.200	 99.115	  0.584
56113	 -0.456	  0.442	  0.233	  9.674	 -0.658	 -1.236	 -0.003	  0.002	  0.001	 33.200	 99.127	 -0.505
56163	 -0.454	  0.447	  0.229	  9.697	 -0.650	 -1.234	 -0.003	  0.002	  0.001	 33.200	 99.127	 -0.505
56213	 -0.454	  0.441	  0.227	  9.706	 -0.668	 -1.242	 -0.004	  0.003	  0.000	 33.200	 99.115	  0.584
56263	 -0.453	  0.444	  0.230	  9.696	 -0.626	 -1.227	 -0.004	  0.003	  0.001	 33.200	 99.115	  0.584
56313	 -0.452	  0.442	  0.228	  9.703	 -0.650	 -1.216	 -0.003	  0.002	 -0.001	 33.200	 99.131	 -0.867
56363	 -0.455	  0.444	  0.230	  9.698	 -0.638	 -1.265	 -0.004	  0.002	  0.001	 33.200	 99.119	  0.221
56413	 -0.455	  0.441	  0.227	  9.667	 -0.659	 -1.246	 -0.002	  0.003	  0.001	 33.200	 99.115	  0.584
56463	 -0.455	  0.445	  0.231	  9.695	 -0.659	 -1.211	 -0.003	  0.002	  0.001	 33.200	 99.127	 -0.505
56513	 -0.451	  0.443	  0.229	  9.685	 -0.665	 -1.254	 -0.004	  0.002	 -0.000	 33.200	 99.115	  0.584
56563	 -0.454	  0.442	  0.229	  9.678	 -0.674	 -1.264	 -0.003	  0.004	  0.001	 33.200	 99.115	  0.584
56613	 -0.454	  0.444	  0.227	  9.690	 -0.656	 -1.228	 -0.003	  0.002	 -0.001	 33.200	 99.115	  0.584
56663	 -0.453	  0.446	  0.230	  9.669	 -0.662	 -1.223	 -0.004	  0.002	  0.002	 33.200	 99.119	  0.221
56713	 -0.452	  0.440	  0.228	  9.685	 -0.669	 -1.228	 -0.003	  0.002	  0.000	 33.200	 99.127	 -0.505
56763	 -0.456	  0.443	  0.229	  9.672	 -0.660	 -1.231	 -0.003	  0.003	 -0.000	 33.200	 99.127	 -0.505
56813	 -0.455	  0.441	  0.227	  9.693	 -0.657	 -1.235	 -0.003	  0.003	  0.001	 33.200	 99.127	 -0.505
56863	 -0.456	  0.445	  0.227	  9.682	 -0.660	 -1.209	 -0.003	  0.002	  0.001	 33.200	 99.127	 -0.505
56913	 -0.453	  0.446	  0.229	  9.691	 -0.662	 -1.236	 -0.003	  0.004	  0.000	 33.200	 99.119	  0.221
