Time	 MagX	 MagY	 MagZ	 AccelX	 AccelY	 AccelZ	 Yaw	 Pitch	 Roll	 Temperature	 Pressure	 Altitude
15331	  0.059	 -0.161	  0.333	  0.158	 -0.094	 -9.633	 -0.002	  0.002	  0.005	 27.000	 99.285	 -99999.000
15381	  0.061	 -0.159	  0.330	  0.131	 -0.058	 -9.624	 -0.003	  0.002	  0.003	 27.000	 99.285	 -99999.000
15431	  0.061	 -0.159	  0.331	  0.161	 -0.009	 -9.691	 -0.004	  0.003	  0.006	 27.000	 99.274	 -99999.000
15481	  0.059	 -0.151	  0.325	  0.172	 -0.055	 -9.672	 -0.004	  0.002	  0.005	 27.000	 99.285	 -99999.000
15531	  0.059	 -0.159	  0.329	  0.158	 -0.035	 -9.627	 -0.004	  0.003	  0.003	 27.000	 99.285	 -99999.000
15581	  0.058	 -0.161	  0.330	  0.170	 -0.002	 -9.691	 -0.002	  0.002	  0.006	 27.000	 99.285	 -99999.000
15631	  0.059	 -0.153	  0.333	  0.157	 -0.052	 -9.639	 -0.004	  0.003	  0.004	 27.000	 99.279	 -99999.000
15681	  0.059	 -0.158	  0.329	  0.162	 -0.023	 -9.672	 -0.003	  0.004	  0.004	 27.000	 99.285	 -99999.000
15731	  0.059	 -0.163	  0.327	  0.158	 -0.013	 -9.670	 -0.002	  0.003	  0.004	 27.000	 99.297	 -99999.000
15781	  0.059	 -0.160	  0.326	  0.167	 -0.044	 -9.599	 -0.003	  0.002	  0.003	 27.000	 99.279	 -99999.000
15831	  0.056	 -0.152	  0.328	  0.163	 -0.017	 -9.654	 -0.004	  0.003	  0.005	 27.000	 99.285	 -99999.000
15881	  0.058	 -0.163	  0.332	  0.164	 -0.042	 -9.608	 -0.003	  0.002	  0.005	 27.000	 99.290	 -99999.000
15931	  0.059	 -0.162	  0.325	  0.185	 -0.006	 -9.705	 -0.003	  0.002	  0.004	 27.000	 99.285	 -99999.000
15981	  0.061	 -0.152	  0.329	  0.181	 -0.003	 -9.615	 -0.004	  0.001	  0.005	 27.000	 99.285	 -99999.000
16031	  0.058	 -0.161	  0.333	  0.181	 -0.053	 -9.662	 -0.004	  0.001	  0.005	 27.000	 99.301	 -99999.000
16081	  0.059	 -0.151	  0.331	  0.204	 -0.039	 -9.627	 -0.003	  0.003	  0.004	 27.000	 99.290	 -99999.000
16131	  0.060	 -0.161	  0.331	  0.153	 -0.011	 -9.639	 -0.003	  0.003	  0.004	 27.000	 99.285	 -99999.000
16181	  0.059	 -0.162	  0.327	  0.187	 -0.044	 -9.603	 -0.003	  0.003	  0.005	 27.000	 99.285	 -99999.000
16231	  0.056	 -0.157	  0.329	  0.154	  0.010	 -9.656	 -0.003	  0.002	  0.002	 27.000	 99.279	 -99999.000
16281	  0.059	 -0.154	  0.331	  0.132	  0.025	 -9.635	 -0.004	  0.003	  0.007	 27.000	 99.290	 -99999.000
16331	  0.058	 -0.165	  0.329	  0.190	 -0.103	 -9.660	 -0.002	  0.002	  0.004	 27.000	 99.285	 -99999.000
16381	  0.060	 -0.166	  0.327	  0.080	  0.039	 -9.706	 -0.008	  0.003	  0.003	 27.000	 99.285	 -99999.000
16431	  0.058	 -0.153	  0.323	  0.012	  0.022	 -9.692	 -0.001	  0.009	  0.006	 27.000	 99.274	 -99999.000
16481	  0.060	 -0.159	  0.330	  0.250	  0.032	 -9.582	 -0.006	  0.004	  0.008	 27.000	 99.290	 -99999.000
16531	  0.059	 -0.162	  0.330	  0.176	 -0.085	 -9.656	 -0.001	  0.000	  0.004	 27.000	 99.285	 -99999.000
16581	  0.060	 -0.163	  0.330	  0.145	  0.030	 -9.684	 -0.003	  0.003	  0.002	 27.000	 99.290	 -99999.000
16631	  0.059	 -0.159	  0.330	  0.177	 -0.030	 -9.658	 -0.002	  0.002	  0.008	 27.000	 99.290	 -99999.000
16681	  0.058	 -0.162	  0.327	  0.190	 -0.081	 -9.654	 -0.004	  0.005	  0.002	 27.000	 99.274	 -99999.000
16731	  0.060	 -0.162	  0.330	  0.151	  0.003	 -9.575	 -0.003	  0.003	  0.007	 27.000	 99.290	 -99999.000
16781	  0.059	 -0.157	  0.326	  0.252	 -0.017	 -9.787	 -0.006	  0.002	  0.001	 27.000	 99.279	 -99999.000
16834	  0.059	 -0.161	  0.330	  0.088	  0.024	 -9.557	 -0.004	  0.004	  0.007	 27.000	 99.274	 -99999.000
16881	  0.060	 -0.153	  0.331	  0.195	 -0.153	 -9.662	 -0.002	  0.001	  0.004	 27.000	 99.285	 -99999.000
16931	  0.059	 -0.167	  0.331	  0.176	  0.045	 -9.593	 -0.004	  0.002	  0.002	 27.000	 99.290	 -99999.000
16981	  0.059	 -0.158	  0.332	  0.143	 -0.017	 -9.689	 -0.001	  0.003	  0.007	 27.000	 99.279	 -99999.000
17031	  0.057	 -0.155	  0.332	  0.080	  0.020	 -9.314	 -0.004	  0.006	 -0.000	 27.000	 99.285	 -99999.000
17081	  0.058	 -0.161	  0.323	  0.164	  0.198	 -9.498	  0.002	  0.002	  0.008	 27.000	 99.279	 -99999.000
17131	  0.059	 -0.162	  0.327	  0.152	 -0.193	 -9.694	 -0.002	  0.002	  0.003	 27.000	 99.290	 -99999.000
17181	  0.058	 -0.158	  0.329	  0.152	  0.025	 -9.761	 -0.002	  0.003	  0.002	 27.000	 99.290	 -99999.000
17231	  0.059	 -0.166	  0.331	  0.175	  0.100	 -9.628	 -0.003	  0.002	  0.007	 27.000	 99.290	 -99999.000
17280	  0.058	 -0.161	  0.329	  0.135	 -0.188	 -9.649	 -0.000	  0.002	  0.009	 27.000	 99.290	 -99999.000
17330	  0.059	 -0.161	  0.332	  0.183	 -0.001	 -9.643	 -0.007	  0.004	 -0.002	 27.000	 99.290	 -99999.000
17380	  0.061	 -0.160	  0.323	  0.141	  0.037	 -9.685	 -0.003	  0.002	  0.009	 27.000	 99.290	 -99999.000
17430	  0.058	 -0.159	  0.330	  0.177	 -0.159	 -9.656	 -0.002	  0.002	  0.005	 27.000	 99.290	 -99999.000
17481	  0.059	 -0.158	  0.329	  0.147	  0.058	 -9.644	 -0.004	  0.003	  0.003	 27.000	 99.285	 -99999.000
17530	  0.059	 -0.156	  0.329	  0.210	 -0.012	 -9.639	 -0.004	  0.002	  0.008	 27.000	 99.294	 -99999.000
17580	  0.061	 -0.161	  0.333	  0.175	  0.014	 -9.256	  0.004	  0.002	  0.003	 27.000	 99.290	 -99999.000
17630	  0.056	 -0.162	  0.328	  0.210	  0.121	 -9.571	 -0.007	  0.004	  0.006	 27.000	 99.290	 -99999.000
17680	  0.056	 -0.163	  0.328	  0.156	 -0.131	 -9.692	 -0.000	 -0.001	  0.004	 27.000	 99.279	 -99999.000
17730	  0.060	 -0.161	  0.330	  0.163	  0.024	 -9.719	 -0.004	  0.002	 -0.000	 27.000	 99.290	 -99999.000
17780	  0.061	 -0.162	  0.329	  0.205	  0.050	 -9.653	 -0.005	  0.003	  0.009	 27.000	 99.290	 -99999.000
17830	  0.058	 -0.158	  0.327	  0.182	 -0.229	 -9.641	 -0.003	  0.002	  0.003	 27.000	 99.279	 -99999.000
17880	  0.058	 -0.161	  0.325	  0.128	  0.041	 -9.608	 -0.005	  0.004	  0.001	 27.000	 99.279	 -99999.000
17930	  0.061	 -0.153	  0.329	  0.152	  0.006	 -9.698	 -0.003	  0.002	  0.008	 27.000	 99.279	 -99999.000
17980	  0.059	 -0.160	  0.327	  0.178	 -0.175	 -9.579	 -0.005	  0.001	  0.003	 27.000	 99.279	 -99999.000
18030	  0.060	 -0.158	  0.330	  0.144	  0.075	 -9.652	 -0.003	  0.004	  0.004	 27.000	 99.279	 -99999.000
18080	  0.057	 -0.160	  0.325	  0.222	 -0.026	 -9.663	 -0.003	  0.003	  0.007	 27.000	 99.283	 -99999.000
18130	  0.057	 -0.153	  0.329	  0.111	 -0.197	 -9.722	 -0.002	  0.003	  0.002	 27.000	 99.279	 -99999.000
18180	  0.057	 -0.159	  0.323	  0.052	  0.096	 -9.962	 -0.008	  0.002	  0.005	 27.000	 99.294	 -99999.000
18230	  0.061	 -0.159	  0.331	  0.192	 -0.067	 -9.581	 -0.003	  0.002	  0.010	 27.000	 99.267	 -99999.000
18281	  0.059	 -0.164	  0.323	  0.222	 -0.062	 -9.560	 -0.003	  0.002	  0.001	 27.000	 99.294	 -99999.000
18331	  0.059	 -0.159	  0.332	  0.118	  0.149	 -9.593	 -0.003	  0.004	  0.004	 27.000	 99.290	 -99999.000
18381	  0.059	 -0.164	  0.332	  0.193	 -0.127	 -9.710	 -0.003	  0.001	  0.007	 27.000	 99.279	 -99999.000
18431	  0.059	 -0.156	  0.329	  0.176	 -0.071	 -9.664	 -0.003	  0.001	  0.001	 27.000	 99.290	 -99999.000
18480	  0.057	 -0.161	  0.328	  0.163	  0.093	 -9.600	 -0.004	  0.002	  0.006	 27.000	 99.294	 -99999.000
18530	  0.058	 -0.161	  0.329	  0.175	 -0.119	 -9.615	 -0.002	  0.003	  0.005	 27.000	 99.294	 -99999.000
18581	  0.058	 -0.159	  0.330	  0.159	  0.010	 -9.623	 -0.004	  0.003	  0.003	 27.000	 99.279	 -99999.000
18631	  0.060	 -0.162	  0.330	  0.173	 -0.042	 -9.658	 -0.001	  0.003	  0.006	 27.000	 99.279	 -99999.000
18681	  0.059	 -0.159	  0.327	  0.147	 -0.024	 -9.656	 -0.003	  0.001	  0.004	 27.000	 99.294	 -99999.000
18731	  0.059	 -0.161	  0.331	  0.145	 -0.005	 -9.612	 -0.004	  0.002	  0.004	 27.000	 99.290	 -99999.000
18781	  0.058	 -0.159	  0.329	  0.187	 -0.080	 -9.784	 -0.003	  0.005	  0.006	 27.000	 99.283	 -99999.000
18832	  0.059	 -0.159	  0.330	  0.147	 -0.030	 -9.687	 -0.003	  0.003	  0.005	 27.000	 99.283	 -99999.000
18881	  0.060	 -0.160	  0.331	  0.102	 -0.055	 -9.709	 -0.006	  0.001	  0.005	 27.000	 99.283	 -99999.000
18932	  0.059	 -0.151	  0.327	  0.156	  0.016	 -9.553	 -0.004	  0.001	  0.005	 27.000	 99.294	 -99999.000
18981	  0.059	 -0.155	  0.324	  0.203	 -0.034	 -9.742	 -0.005	  0.004	  0.002	 27.000	 99.283	 -99999.000
19031	  0.060	 -0.160	  0.327	  0.226	  0.038	 -9.631	 -0.004	  0.003	  0.006	 27.000	 99.279	 -99999.000
19081	  0.058	 -0.162	  0.329	  0.166	 -0.030	 -9.642	 -0.004	  0.004	  0.004	 27.000	 99.294	 -99999.000
19131	  0.059	 -0.162	  0.332	  0.134	 -0.005	 -9.625	 -0.004	  0.003	  0.004	 27.000	 99.283	 -99999.000
19181	  0.058	 -0.155	  0.327	  0.163	  0.004	 -9.669	 -0.001	  0.002	  0.005	 27.000	 99.283	 -99999.000
19231	  0.056	 -0.161	  0.328	  0.163	 -0.033	 -9.694	 -0.004	  0.004	  0.004	 27.000	 99.279	 -99999.000
19281	  0.060	 -0.159	  0.325	  0.156	 -0.022	 -9.624	 -0.002	  0.002	  0.005	 27.000	 99.294	 -99999.000
19331	  0.059	 -0.160	  0.331	  0.171	 -0.022	 -9.676	 -0.004	  0.002	  0.006	 27.000	 99.283	 -99999.000
19381	  0.058	 -0.157	  0.329	  0.161	 -0.031	 -9.643	 -0.004	  0.002	  0.004	 27.000	 99.283	 -99999.000
19431	  0.059	 -0.159	  0.329	  0.154	 -0.021	 -9.640	 -0.004	  0.002	  0.004	 27.000	 99.279	 -99999.000
19481	  0.058	 -0.160	  0.327	  0.175	 -0.017	 -9.669	 -0.003	  0.002	  0.005	 27.000	 99.283	 -99999.000
19531	  0.059	 -0.165	  0.322	  0.162	 -0.051	 -9.618	 -0.004	  0.003	  0.005	 27.000	 99.294	 -99999.000
19581	  0.059	 -0.160	  0.330	  0.158	 -0.019	 -9.682	 -0.003	  0.003	  0.005	 27.000	 99.294	 -99999.000
19631	  0.056	 -0.162	  0.331	  0.172	 -0.029	 -9.643	 -0.004	  0.002	  0.005	 27.000	 99.283	 -99999.000
19681	  0.060	 -0.160	  0.329	  0.194	 -0.041	 -9.678	 -0.004	  0.003	  0.005	 27.000	 99.283	 -99999.000
19731	  0.059	 -0.163	  0.327	  0.158	 -0.037	 -9.689	 -0.003	  0.003	  0.004	 27.000	 99.283	 -99999.000
19781	  0.060	 -0.159	  0.329	  0.186	 -0.063	 -9.591	 -0.002	  0.002	  0.006	 27.100	 99.287	 -99999.000
19831	  0.058	 -0.162	  0.330	  0.163	 -0.027	 -9.714	 -0.003	  0.003	  0.004	 27.000	 99.283	 -99999.000
19881	  0.060	 -0.159	  0.326	  0.184	 -0.036	 -9.585	 -0.003	  0.003	  0.006	 27.000	 99.283	 -99999.000
19931	  0.059	 -0.161	  0.329	  0.161	 -0.038	 -9.656	 -0.001	  0.002	  0.005	 27.100	 99.283	 -99999.000
19981	  0.058	 -0.158	  0.329	  0.161	 -0.039	 -9.618	 -0.004	  0.003	  0.004	 27.000	 99.283	 -99999.000
20031	  0.058	 -0.160	  0.329	  0.180	 -0.008	 -9.727	 -0.003	  0.002	  0.005	 27.000	 99.294	 -99999.000
20082	  0.060	 -0.156	  0.330	  0.170	 -0.046	 -9.600	 -0.004	  0.003	  0.005	 27.000	 99.294	 -99999.000
20131	  0.060	 -0.158	  0.324	  0.138	 -0.013	 -9.658	 -0.004	  0.002	  0.004	 27.000	 99.283	 -99999.000
20181	  0.062	 -0.160	  0.325	  0.172	 -0.011	 -9.634	 -0.004	  0.004	  0.006	 27.000	 99.272	 -99999.000
20231	  0.060	 -0.158	  0.320	  0.165	 -0.056	 -9.604	 -0.002	  0.003	  0.004	 27.000	 99.283	 -99999.000
20281	  0.057	 -0.162	  0.329	  0.172	 -0.030	 -9.692	 -0.005	  0.003	  0.005	 27.000	 99.283	 -99999.000
20331	  0.058	 -0.157	  0.326	  0.170	 -0.028	 -9.657	 -0.002	  0.002	  0.005	 27.100	 99.283	 -99999.000
20381	  0.060	 -0.161	  0.330	  0.187	 -0.040	 -9.632	 -0.003	  0.004	  0.004	 27.100	 99.283	 -99999.000
20431	  0.058	 -0.153	  0.328	  0.168	 -0.030	 -9.661	 -0.004	  0.003	  0.005	 27.100	 99.287	 -99999.000
20481	  0.060	 -0.163	  0.323	  0.206	 -0.046	 -9.628	 -0.004	  0.002	  0.004	 27.000	 99.283	 -99999.000
20531	  0.060	 -0.160	  0.326	  0.138	 -0.001	 -9.656	 -0.004	  0.003	  0.004	 27.000	 99.272	 -99999.000
20581	  0.059	 -0.160	  0.332	  0.183	 -0.049	 -9.608	 -0.004	  0.005	  0.005	 27.100	 99.287	 -99999.000
20631	  0.059	 -0.157	  0.330	  0.158	 -0.020	 -9.665	 -0.003	  0.002	  0.005	 27.100	 99.287	 -99999.000
20681	  0.059	 -0.161	  0.331	  0.158	 -0.044	 -9.654	 -0.002	  0.003	  0.005	 27.100	 99.294	 -99999.000
20731	  0.059	 -0.158	  0.330	  0.150	 -0.148	 -9.624	 -0.002	  0.001	  0.003	 27.000	 99.294	 -99999.000
20781	  0.059	 -0.159	  0.329	  0.166	  0.035	 -9.692	 -0.003	  0.002	  0.004	 27.100	 99.272	 -99999.000
20831	  0.062	 -0.162	  0.332	  0.137	 -0.060	 -9.637	 -0.004	  0.003	  0.008	 27.100	 99.283	 -99999.000
20881	  0.058	 -0.163	  0.329	  0.151	 -0.041	 -9.709	 -0.005	  0.002	  0.004	 27.100	 99.287	 -99999.000
20931	  0.059	 -0.163	  0.330	  0.177	  0.007	 -9.600	 -0.003	  0.004	  0.005	 27.100	 99.283	 -99999.000
20981	  0.059	 -0.159	  0.326	  0.179	 -0.064	 -9.622	 -0.003	  0.003	  0.006	 27.100	 99.287	 -99999.000
21031	  0.060	 -0.161	  0.332	  0.134	 -0.029	 -9.608	 -0.004	  0.003	  0.005	 27.100	 99.276	 -99999.000
21081	  0.060	 -0.162	  0.330	  0.178	 -0.028	 -9.656	 -0.003	  0.002	  0.005	 27.000	 99.283	 -99999.000
21131	  0.059	 -0.163	  0.332	  0.167	 -0.040	 -9.676	 -0.004	  0.002	  0.004	 27.100	 99.265	 -99999.000
21181	  0.060	 -0.160	  0.327	  0.158	 -0.010	 -9.648	 -0.003	  0.003	  0.004	 27.100	 99.287	 -99999.000
21231	  0.059	 -0.163	  0.331	  0.179	 -0.036	 -9.684	 -0.002	  0.002	  0.006	 27.000	 99.294	 -99999.000
21281	  0.057	 -0.157	  0.329	  0.169	 -0.065	 -9.678	 -0.002	  0.002	  0.004	 27.100	 99.287	 -99999.000
32633	  0.059	 -0.163	  0.329	  0.142	 -0.043	 -9.687	 -0.003	  0.003	  0.004	 27.200	 99.286	 -0.098
32683	  0.060	 -0.154	  0.327	  0.185	  0.009	 -9.604	 -0.004	  0.003	  0.003	 27.100	 99.281	  0.352
32733	  0.059	 -0.159	  0.332	  0.163	 -0.025	 -9.659	 -0.003	  0.004	  0.005	 27.200	 99.297	 -1.086
32783	  0.059	 -0.158	  0.332	  0.142	 -0.070	 -9.648	 -0.003	  0.003	  0.004	 27.100	 99.286	 -0.098
32833	  0.060	 -0.162	  0.331	  0.172	  0.006	 -9.650	 -0.004	  0.002	  0.005	 27.200	 99.286	 -0.098
32883	  0.059	 -0.154	  0.327	  0.157	 -0.048	 -9.649	 -0.003	  0.002	  0.005	 27.200	 99.270	  1.341
32933	  0.057	 -0.160	  0.333	  0.164	 -0.046	 -9.649	 -0.004	  0.003	  0.005	 27.200	 99.286	 -0.098
32983	  0.059	 -0.157	  0.332	  0.171	 -0.017	 -9.577	 -0.004	  0.002	  0.005	 27.100	 99.286	 -0.098
33033	  0.060	 -0.157	  0.332	  0.154	 -0.031	 -9.624	 -0.003	  0.003	  0.004	 27.200	 99.286	 -0.098
33083	  0.058	 -0.157	  0.330	  0.161	 -0.023	 -9.686	 -0.004	  0.004	  0.005	 27.200	 99.286	 -0.098
33133	  0.058	 -0.159	  0.329	  0.163	 -0.028	 -9.621	 -0.003	  0.003	  0.004	 27.200	 99.274	  0.981
33183	  0.059	 -0.160	  0.335	  0.152	 -0.037	 -9.642	 -0.003	  0.002	  0.005	 27.200	 99.286	 -0.098
33233	  0.057	 -0.162	  0.330	  0.195	 -0.019	 -9.631	 -0.002	  0.003	  0.005	 27.100	 99.281	  0.352
33283	  0.058	 -0.164	  0.332	  0.163	 -0.013	 -9.655	 -0.002	  0.003	  0.004	 27.100	 99.286	 -0.098
33333	  0.058	 -0.160	  0.327	  0.125	 -0.013	 -9.650	 -0.002	  0.003	  0.007	 27.200	 99.286	 -0.098
33383	  0.058	 -0.151	  0.332	  0.150	 -0.054	 -9.684	 -0.006	  0.003	  0.003	 27.100	 99.286	 -0.098
33433	  0.059	 -0.154	  0.325	  0.160	  0.002	 -9.570	 -0.004	  0.003	  0.005	 27.200	 99.286	 -0.098
33483	  0.059	 -0.161	  0.326	  0.176	 -0.029	 -9.677	 -0.003	  0.002	  0.003	 27.200	 99.286	 -0.098
33533	  0.058	 -0.162	  0.327	  0.092	  0.126	 -9.417	  0.003	  0.002	  0.008	 27.100	 99.281	  0.352
33583	  0.059	 -0.159	  0.332	  0.140	 -0.051	 -9.699	  0.004	 -0.000	  0.012	 27.200	 99.297	 -1.086
33633	  0.061	 -0.157	  0.332	  0.108	  0.326	 -9.457	  0.024	 -0.004	  0.008	 27.200	 99.286	 -0.098
33683	  0.059	 -0.157	  0.333	  0.194	  0.059	 -9.578	 -0.003	  0.002	  0.005	 27.200	 99.286	 -0.098
33733	  0.058	 -0.157	  0.330	  0.186	 -0.036	 -9.649	 -0.003	  0.003	  0.004	 27.100	 99.281	  0.352
33783	  0.060	 -0.161	  0.330	  0.165	 -0.035	 -9.645	 -0.005	  0.001	  0.005	 27.100	 99.286	 -0.098
33833	  0.059	 -0.164	  0.333	  0.187	 -0.035	 -9.633	 -0.005	  0.004	  0.003	 27.200	 99.286	 -0.098
33883	  0.056	 -0.161	  0.330	  0.136	 -0.032	 -9.634	 -0.006	  0.001	 -0.004	 27.200	 99.286	 -0.098
33933	  0.058	 -0.162	  0.333	  0.065	 -0.033	 -9.648	  0.006	  0.002	  0.012	 27.200	 99.274	  0.981
33983	  0.062	 -0.157	  0.330	  0.364	  0.918	 -9.199	  0.646	 -0.320	  0.082	 27.200	 99.290	 -0.457
34033	  0.066	 -0.139	  0.339	  0.123	  0.342	 -9.188	  1.630	 -0.418	  0.488	 27.200	 99.297	 -1.086
34083	  0.088	 -0.098	  0.336	 -0.160	 -1.891	 -9.204	  1.637	 -1.175	 -0.657	 27.200	 99.286	 -0.098
34133	  0.130	 -0.073	  0.331	 -2.524	 -3.044	  0.370	  1.432	 -0.328	  0.194	 27.200	 99.286	 -0.098
34183	  0.145	 -0.055	  0.329	 -1.404	 -2.054	 -11.620	 -0.033	 -1.231	 -0.174	 27.200	 99.274	  0.981
34233	  0.171	 -0.063	  0.310	 -3.645	 -1.460	 -10.504	 -0.894	 -0.848	 -0.015	 27.200	 99.274	  0.981
34283	  0.179	 -0.072	  0.313	 -3.021	 -1.465	 -14.133	 -1.070	  0.989	  0.184	 27.200	 99.290	 -0.457
34333	  0.148	 -0.084	  0.338	 -1.277	 -2.346	 -11.602	 -1.325	  2.611	 -0.733	 27.200	 99.290	 -0.457
34383	  0.122	 -0.085	  0.362	 -2.009	 -4.022	 -1.434	  0.676	  1.608	 -0.797	 27.200	 99.286	 -0.098
34433	  0.114	 -0.056	  0.385	  2.661	 -1.808	 -11.416	  0.416	 -0.091	 -0.303	 27.200	 99.274	  0.981
34483	  0.142	 -0.039	  0.407	  1.004	 -0.558	 -10.609	 -0.634	 -1.366	 -0.214	 27.200	 99.297	 -1.086
34533	  0.175	 -0.041	  0.423	  1.863	 -0.872	 -13.171	 -1.243	 -0.526	 -0.269	 27.200	 99.274	  0.981
34583	  0.180	 -0.067	  0.472	 -0.047	 -0.087	 -10.722	 -1.464	 -0.603	  0.280	 27.200	 99.279	  0.531
34633	  0.171	 -0.100	  0.510	 -1.789	 -1.251	 -9.187	 -1.505	  0.132	  0.398	 27.200	 99.286	 -0.098
34683	  0.145	 -0.184	  0.534	 -1.910	  1.856	 -9.239	 -1.452	  0.323	  0.427	 27.200	 99.279	  0.531
34733	  0.124	 -0.237	  0.536	 -2.470	  0.426	 -9.249	  0.191	 -0.486	  0.277	 27.200	 99.290	 -0.457
34783	  0.108	 -0.271	  0.534	 -3.751	  2.152	 -7.678	  0.628	  0.468	  0.692	 27.200	 99.286	 -0.098
34833	  0.056	 -0.266	  0.542	  0.034	  0.562	 -13.283	  1.258	  0.710	  1.321	 27.200	 99.279	  0.531
34883	  0.014	 -0.258	  0.553	  0.906	  0.393	 -8.735	  1.022	  0.626	  0.609	 27.200	 99.274	  0.981
34933	 -0.014	 -0.266	  0.550	  1.545	  0.344	 -8.453	  0.494	  0.049	  0.709	 27.200	 99.286	 -0.098
34983	 -0.022	 -0.266	  0.550	  1.707	  0.208	 -10.968	 -0.012	 -0.074	  0.713	 27.200	 99.286	 -0.098
35033	 -0.044	 -0.301	  0.545	  1.049	 -0.451	 -8.524	  0.115	 -0.079	  1.005	 27.200	 99.274	  0.981
35083	 -0.056	 -0.321	  0.536	  0.709	  0.512	 -10.165	 -0.301	 -0.210	  1.734	 27.200	 99.274	  0.981
35133	 -0.085	 -0.358	  0.517	  0.179	  0.529	 -9.920	 -0.939	  0.421	  1.559	 27.200	 99.286	 -0.098
35183	 -0.110	 -0.409	  0.481	  0.869	  0.427	 -7.264	 -1.030	 -0.078	 -0.203	 27.200	 99.279	  0.531
35233	 -0.096	 -0.456	  0.453	 -2.375	  1.839	 -7.014	 -0.626	  0.288	  0.125	 27.200	 99.279	  0.531
35283	 -0.116	 -0.454	  0.430	 -0.471	  2.079	 -7.683	  0.093	  0.636	  0.811	 27.200	 99.279	  0.531
35333	 -0.124	 -0.463	  0.408	  0.035	  0.684	 -11.554	 -1.043	  0.329	  0.234	 27.200	 99.274	  0.981
35383	 -0.127	 -0.487	  0.367	 -0.788	  2.363	 -8.883	 -1.107	  0.218	  0.849	 27.200	 99.290	 -0.457
35433	 -0.138	 -0.477	  0.341	  0.883	  2.169	 -8.812	 -0.450	 -0.148	  0.656	 27.200	 99.290	 -0.457
35483	 -0.138	 -0.472	  0.333	  0.089	  2.882	 -9.685	 -0.157	 -0.340	  0.813	 27.200	 99.267	  1.610
35533	 -0.142	 -0.461	  0.326	  0.310	  3.011	 -9.251	 -0.402	 -0.258	  1.010	 27.200	 99.279	  0.531
35583	 -0.156	 -0.445	  0.308	  0.803	  3.170	 -8.542	 -0.371	 -0.318	  1.145	 27.200	 99.279	  0.531
35633	 -0.165	 -0.431	  0.303	  0.881	  4.018	 -8.386	 -0.166	 -0.328	  1.348	 27.200	 99.279	  0.531
35683	 -0.176	 -0.410	  0.304	  2.690	  3.652	 -8.073	  0.260	 -0.631	  1.190	 27.200	 99.279	  0.531
35734	 -0.180	 -0.386	  0.321	  1.317	  3.701	 -8.403	  0.529	 -0.523	  1.017	 27.200	 99.286	 -0.098
35783	 -0.189	 -0.363	  0.336	  1.352	  3.809	 -9.633	  0.554	  0.039	  1.450	 27.200	 99.290	 -0.457
35834	 -0.223	 -0.334	  0.332	  1.634	  2.642	 -9.134	  0.472	  0.715	  1.554	 27.200	 99.279	  0.531
35884	 -0.261	 -0.317	  0.327	  2.961	  1.780	 -10.345	 -0.004	  0.876	  1.400	 27.200	 99.279	  0.531
35934	 -0.294	 -0.313	  0.299	  4.693	  1.512	 -9.078	 -0.734	  0.894	  0.812	 27.200	 99.301	 -1.446
35984	 -0.302	 -0.323	  0.281	  5.013	  1.805	 -8.827	 -0.750	  0.181	 -0.058	 27.200	 99.279	  0.531
36034	 -0.290	 -0.346	  0.264	  4.280	  2.747	 -7.819	 -0.346	 -0.350	 -0.836	 27.200	 99.290	 -0.457
36084	 -0.264	 -0.379	  0.257	  3.084	  2.651	 -7.229	  0.102	 -0.674	 -1.350	 27.200	 99.279	  0.531
36134	 -0.217	 -0.404	  0.265	  0.912	  2.919	 -8.046	  0.613	 -0.850	 -1.382	 27.200	 99.294	 -0.817
36184	 -0.175	 -0.416	  0.281	  0.587	  2.962	 -7.428	  0.919	 -0.968	 -0.815	 27.200	 99.279	  0.531
36234	 -0.127	 -0.405	  0.304	 -0.371	  1.162	 -8.807	  1.308	 -1.001	 -0.768	 27.200	 99.279	  0.531
36284	 -0.090	 -0.404	  0.327	 -1.960	  0.789	 -9.938	  0.790	 -0.436	 -0.599	 27.200	 99.279	  0.531
36334	 -0.057	 -0.395	  0.336	 -1.741	  0.920	 -9.087	  1.049	 -0.609	  0.093	 27.200	 99.290	 -0.457
36384	 -0.037	 -0.375	  0.361	 -0.874	 -0.839	 -11.743	  0.602	 -0.340	  0.244	 27.200	 99.267	  1.610
36434	 -0.028	 -0.384	  0.354	 -0.595	 -0.324	 -10.142	 -0.874	  0.192	 -0.186	 27.200	 99.267	  1.610
36484	 -0.022	 -0.380	  0.349	 -1.945	  1.939	 -8.903	  0.286	 -0.178	  0.089	 27.200	 99.279	  0.531
36533	 -0.021	 -0.380	  0.351	 -0.963	  0.389	 -9.730	 -0.277	  0.231	  0.175	 27.200	 99.283	  0.172
36584	 -0.019	 -0.368	  0.351	 -1.397	  1.266	 -8.229	  0.558	 -0.015	  0.315	 27.200	 99.279	  0.531
36634	 -0.019	 -0.356	  0.359	 -0.495	 -0.045	 -10.430	  0.193	 -0.348	  0.472	 27.200	 99.279	  0.531
36684	 -0.014	 -0.355	  0.364	 -0.485	  0.539	 -8.695	  0.119	 -0.157	  0.157	 27.200	 99.283	  0.172
36734	 -0.007	 -0.354	  0.371	 -1.416	 -0.210	 -11.157	 -0.281	 -0.265	  0.212	 27.200	 99.279	  0.531
36784	 -0.003	 -0.359	  0.353	 -1.121	  0.962	 -8.339	 -0.194	 -0.211	 -0.008	 27.200	 99.279	  0.531
36834	 -0.002	 -0.357	  0.371	 -1.388	  0.493	 -10.304	  0.391	 -0.013	  0.292	 27.200	 99.267	  1.610
36884	 -0.005	 -0.344	  0.372	  0.556	 -0.656	 -9.772	 -0.037	 -0.181	  0.015	 27.200	 99.279	  0.531
36934	  0.009	 -0.339	  0.378	 -1.849	  0.150	 -9.879	  0.037	 -0.854	 -0.004	 27.200	 99.283	  0.172
36984	  0.032	 -0.336	  0.373	 -0.555	 -0.101	 -9.940	 -0.228	 -1.088	  0.208	 27.200	 99.279	  0.531
37034	  0.058	 -0.327	  0.373	 -2.718	  1.515	 -9.349	 -0.103	 -1.995	  0.722	 27.200	 99.267	  1.610
37084	  0.089	 -0.332	  0.364	 -2.418	  0.640	 -8.842	 -0.266	 -1.345	  0.453	 27.200	 99.283	  0.172
37134	  0.105	 -0.325	  0.356	 -3.523	  1.324	 -8.806	  0.095	 -0.572	  0.226	 27.200	 99.279	  0.531
37184	  0.115	 -0.316	  0.360	 -2.878	  1.555	 -9.118	  0.341	 -0.638	  0.335	 27.200	 99.279	  0.531
37234	  0.127	 -0.307	  0.363	 -6.989	  1.928	 -8.703	  0.270	 -0.995	  0.763	 27.200	 99.279	  0.531
37284	  0.139	 -0.287	  0.368	 -4.346	  0.459	 -7.127	  0.597	 -0.437	  0.445	 27.200	 99.267	  1.610
37334	  0.132	 -0.280	  0.376	 -6.029	  1.056	 -8.010	  0.506	  0.358	  1.014	 27.200	 99.272	  1.160
37384	  0.100	 -0.278	  0.384	 -3.779	  0.730	 -8.304	  0.344	  1.099	  0.884	 27.200	 99.272	  1.160
37434	  0.091	 -0.272	  0.387	 -3.302	  1.321	 -9.488	  0.070	 -0.530	 -0.448	 27.200	 99.267	  1.610
37484	  0.116	 -0.260	  0.393	 -4.116	  1.007	 -8.361	  0.730	 -0.927	 -0.199	 27.200	 99.279	  0.531
37534	  0.129	 -0.234	  0.398	 -3.977	 -0.352	 -8.820	  0.708	 -0.155	  0.452	 27.200	 99.283	  0.172
37584	  0.122	 -0.241	  0.402	 -4.569	  0.200	 -7.714	 -1.043	  0.710	  0.180	 27.200	 99.279	  0.531
37634	  0.094	 -0.262	  0.394	 -1.838	  0.724	 -8.135	 -0.780	  0.759	 -0.159	 27.200	 99.272	  1.160
37684	  0.103	 -0.273	  0.382	 -4.716	  1.669	 -8.303	 -0.090	  0.147	 -0.011	 27.200	 99.279	  0.531
37734	  0.084	 -0.270	  0.397	 -3.580	  2.136	 -7.955	  0.063	  0.819	  0.291	 27.200	 99.272	  1.160
37784	  0.060	 -0.287	  0.393	 -3.057	  0.960	 -10.991	 -0.990	  1.423	 -0.230	 27.200	 99.272	  1.160
37834	  0.049	 -0.304	  0.394	 -2.574	 -0.729	 -11.738	 -0.588	 -0.067	 -0.221	 27.200	 99.283	  0.172
37884	  0.057	 -0.305	  0.380	 -3.934	  0.135	 -9.001	  0.170	 -0.191	  0.183	 27.200	 99.283	  0.172
37934	  0.038	 -0.314	  0.383	 -3.276	  2.651	 -6.622	 -1.035	  1.935	 -0.053	 27.200	 99.279	  0.531
37984	 -0.012	 -0.321	  0.380	 -1.662	  1.029	 -9.933	  0.138	  2.127	 -0.090	 27.200	 99.267	  1.610
38034	 -0.036	 -0.333	  0.369	 -9.464	 -3.838	 -11.086	 -0.111	  0.310	  0.145	 27.200	 99.294	 -0.817
38084	 -0.072	 -0.332	  0.361	 -7.962	  1.151	 -10.733	 -1.148	 -1.796	  5.501	 27.200	 99.272	  1.160
38134	 -0.107	 -0.315	  0.355	 38.882	  8.281	 -9.292	 -0.631	 -0.522	 -0.094	 27.200	 99.283	  0.172
38184	 -0.034	 -0.328	  0.363	 -14.934	 -16.185	 -5.162	  2.934	 -0.224	 -8.678	 27.200	 99.283	  0.172
38234	  0.040	 -0.257	  0.406	 -32.235	 -11.151	 -30.816	  0.261	 -0.057	  3.825	 27.200	 99.283	  0.172
38284	 -0.059	 -0.327	  0.351	 37.355	  6.090	  9.486	 -2.209	  1.215	  1.185	 27.200	 99.287	 -0.188
38334	  0.000	 -0.306	  0.371	 -11.525	  2.755	 -12.568	  1.985	 -1.408	 -3.433	 27.200	 99.283	  0.172
38384	  0.009	 -0.290	  0.379	 -18.938	 -2.141	 -8.643	 -0.909	  0.647	  2.044	 27.200	 99.272	  1.160
38434	 -0.026	 -0.303	  0.366	 28.218	  4.652	 -4.696	  0.691	 -0.486	 -1.513	 27.200	 99.272	  1.160
38484	  0.032	 -0.290	  0.378	 -32.684	 -0.390	 -9.732	  0.181	  0.141	 -2.563	 27.200	 99.287	 -0.188
38534	  0.001	 -0.298	  0.371	 -6.062	  3.672	 -4.507	 -0.740	  0.000	  4.626	 27.200	 99.283	  0.172
38584	  0.009	 -0.282	  0.375	 31.281	  1.437	 -20.265	  0.757	 -1.231	 -5.287	 27.200	 99.283	  0.172
38634	  0.104	 -0.258	  0.387	 -52.843	 -1.617	 -4.768	  0.551	  0.099	 -2.749	 27.200	 99.272	  1.160
38684	  0.020	 -0.300	  0.372	  6.334	 -4.274	 -6.144	 -3.552	  1.383	  8.849	 27.200	 99.272	  1.160
38734	  0.012	 -0.301	  0.363	 43.025	  3.326	 -12.506	  1.296	 -0.882	 -8.872	 27.200	 99.283	  0.172
38784	  0.121	 -0.226	  0.394	 -66.303	 -5.963	 -15.814	  1.974	 -0.858	  1.561	 27.200	 99.283	  0.172
38834	  0.010	 -0.307	  0.366	 21.700	 -8.163	  0.538	 -4.400	  1.225	  7.714	 27.200	 99.272	  1.160
38884	  0.035	 -0.302	  0.370	 18.064	 -4.573	 -6.420	  2.094	 -1.768	 -9.198	 27.200	 99.283	  0.172
38934	  0.112	 -0.238	  0.390	 -42.693	 -17.662	 -17.930	 -0.042	  0.116	  5.186	 27.200	 99.267	  1.610
38984	 -0.006	 -0.317	  0.355	 44.556	  4.581	  4.349	 -2.148	 -0.047	  3.063	 27.200	 99.283	  0.172
39034	  0.100	 -0.284	  0.369	 -18.858	 -14.485	 -3.276	  2.821	 -1.031	 -10.532	 27.200	 99.283	  0.172
39084	  0.121	 -0.249	  0.381	 -26.262	 -19.081	 -15.447	 -1.756	  1.054	  5.780	 27.200	 99.287	 -0.188
39134	  0.034	 -0.332	  0.355	 26.058	  3.852	  1.416	 -1.088	  0.128	  1.980	 27.200	 99.276	  0.801
39184	  0.064	 -0.305	  0.359	 -4.224	  4.460	 -10.693	  1.652	 -0.369	 -2.808	 27.200	 99.283	  0.172
39234	  0.080	 -0.279	  0.379	 -9.410	 -1.288	 -10.306	  0.434	  0.555	 -0.073	 27.200	 99.283	  0.172
39284	  0.065	 -0.279	  0.385	 -2.903	  1.517	 -2.758	  0.945	 -0.106	  0.539	 27.200	 99.283	  0.172
39334	  0.089	 -0.251	  0.394	 -1.246	 -5.620	 -11.740	  1.246	 -1.167	 -1.006	 27.200	 99.272	  1.160
39384	  0.109	 -0.245	  0.397	 -1.753	  0.898	 -11.612	 -0.579	 -1.286	 -0.413	 27.200	 99.283	  0.172
39434	  0.157	 -0.247	  0.382	 -5.544	  0.017	 -9.621	 -0.222	 -1.467	 -1.172	 27.200	 99.276	  0.801
39484	  0.172	 -0.257	  0.375	 -5.329	  0.058	 -11.255	 -0.732	 -0.144	  0.038	 27.200	 99.276	  0.801
39534	  0.158	 -0.280	  0.365	 -3.503	 -1.262	 -7.685	 -1.030	  0.422	  0.396	 27.200	 99.283	  0.172
39584	  0.143	 -0.293	  0.357	 -2.516	  3.368	 -4.977	  0.142	  1.121	 -0.214	 27.200	 99.276	  0.801
39634	  0.104	 -0.267	  0.376	 -3.360	 -0.428	 -9.180	  0.601	  0.287	  0.052	 27.200	 99.283	  0.172
39684	  0.124	 -0.275	  0.376	 -3.561	  2.260	 -10.185	 -0.160	  0.047	  0.279	 27.200	 99.287	 -0.188
39734	  0.093	 -0.280	  0.377	 -2.799	  1.394	 -8.229	  0.415	  0.547	  0.997	 27.200	 99.283	  0.172
39784	  0.077	 -0.289	  0.377	 -2.640	  1.917	 -8.686	 -0.593	  0.049	  1.084	 27.200	 99.287	 -0.188
39834	  0.097	 -0.285	  0.371	 -2.328	 -0.966	 -9.412	 -0.240	  0.106	  0.275	 27.200	 99.276	  0.801
39884	  0.115	 -0.296	  0.363	 -7.732	  1.355	 -11.893	 -0.714	 -2.339	  0.572	 27.200	 99.287	 -0.188
39934	  0.128	 -0.306	  0.350	 -3.748	  2.230	 -8.282	  0.181	 -0.360	  0.152	 27.200	 99.276	  0.801
39984	  0.119	 -0.299	  0.362	 -3.393	  2.107	 -8.450	  0.337	  2.722	  0.742	 27.200	 99.283	  0.172
40034	  0.081	 -0.290	  0.371	 -2.972	  1.032	 -8.436	 -0.079	  1.849	  0.600	 27.200	 99.276	  0.801
40084	  0.066	 -0.290	  0.376	 -3.088	  1.816	 -8.971	  0.258	  0.069	  0.500	 27.200	 99.272	  1.160
40134	  0.055	 -0.284	  0.377	 -2.277	  1.060	 -6.607	 -0.365	  0.444	  0.516	 27.200	 99.276	  0.801
40184	  0.054	 -0.302	  0.371	 -2.623	  1.757	 -9.007	 -0.267	 -0.438	 -0.248	 27.200	 99.283	  0.172
40234	  0.069	 -0.294	  0.367	 -3.492	  2.851	 -9.427	 -0.295	 -0.315	  0.243	 27.200	 99.276	  0.801
40284	  0.069	 -0.313	  0.357	 -3.356	  2.307	 -9.550	 -0.667	 -0.650	  0.403	 27.200	 99.276	  0.801
40334	  0.059	 -0.322	  0.358	 -2.998	  3.459	 -7.190	  0.871	  1.011	  0.283	 27.200	 99.276	  0.801
40384	  0.038	 -0.302	  0.369	 -4.262	  1.241	 -9.456	  0.459	 -0.149	  0.466	 27.200	 99.287	 -0.188
40434	  0.036	 -0.301	  0.378	 -3.322	  0.992	 -9.203	 -0.347	  0.910	  0.261	 27.200	 99.276	  0.801
40484	  0.044	 -0.321	  0.364	 -2.932	  1.820	 -8.925	 -0.687	 -0.929	 -0.005	 27.200	 99.276	  0.801
40534	  0.063	 -0.322	  0.359	 -3.287	  2.474	 -8.659	  0.298	 -0.519	  0.099	 27.200	 99.276	  0.801
40584	  0.057	 -0.306	  0.368	 -3.364	  2.599	 -9.151	  0.616	  0.402	 -0.349	 27.200	 99.276	  0.801
40634	  0.050	 -0.306	  0.370	 -3.715	  2.220	 -9.566	  0.039	  0.187	  0.135	 27.200	 99.276	  0.801
40684	  0.048	 -0.310	  0.365	 -2.848	  2.945	 -7.119	 -0.524	 -0.556	 -0.163	 27.200	 99.287	 -0.188
40734	  0.067	 -0.309	  0.364	 -4.053	  2.193	 -8.674	 -0.085	 -0.538	  0.026	 27.200	 99.287	 -0.188
40784	  0.071	 -0.306	  0.361	 -4.299	  2.653	 -10.079	  0.149	 -0.033	  0.135	 27.200	 99.276	  0.801
40834	  0.056	 -0.308	  0.367	 -2.242	  3.084	 -7.314	  0.935	  1.022	  0.031	 27.200	 99.269	  1.431
40884	  0.046	 -0.312	  0.366	 -3.127	  0.645	 -9.361	 -0.449	 -0.388	  0.395	 27.200	 99.291	 -0.547
40934	  0.054	 -0.319	  0.366	 -0.956	  1.915	 -6.964	 -0.209	 -0.007	 -0.079	 27.200	 99.276	  0.801
40984	  0.065	 -0.319	  0.361	 -3.895	  3.240	 -8.664	  0.259	  0.103	 -0.161	 27.200	 99.287	 -0.188
41034	  0.057	 -0.309	  0.369	 -2.708	  2.594	 -10.104	  0.608	  0.539	  0.257	 27.200	 99.287	 -0.188
41084	  0.042	 -0.299	  0.377	 -2.198	  3.001	 -8.693	  0.276	  1.359	  0.254	 27.200	 99.276	  0.801
41134	  0.041	 -0.315	  0.364	 -1.618	  1.183	 -6.820	 -1.616	 -0.854	 -0.213	 27.200	 99.291	 -0.547
41184	  0.068	 -0.347	  0.339	 -3.300	  2.194	 -8.300	 -2.214	 -1.329	  0.181	 27.200	 99.265	  1.790
41234	  0.075	 -0.379	  0.316	 -3.704	  3.584	 -8.329	 -0.276	  0.387	  0.692	 27.200	 99.280	  0.442
41284	  0.058	 -0.378	  0.320	 -3.494	  2.553	 -7.242	 -0.464	 -0.127	  0.496	 27.200	 99.280	  0.442
41334	  0.062	 -0.383	  0.315	 -4.016	  3.596	 -10.032	  0.043	 -0.411	  0.526	 27.200	 99.280	  0.442
41384	  0.063	 -0.373	  0.326	 -1.936	  4.382	 -3.881	  0.805	  0.465	  0.417	 27.200	 99.280	  0.442
41434	  0.056	 -0.351	  0.335	 -4.378	  3.701	 -9.415	  0.258	 -0.183	 -0.028	 27.200	 99.276	  0.801
41484	  0.049	 -0.350	  0.342	 -2.424	  3.278	 -6.813	  0.466	  0.690	  0.314	 27.200	 99.276	  0.801
41534	  0.042	 -0.349	  0.340	 -3.055	  2.953	 -8.929	 -0.765	 -0.420	  0.014	 27.200	 99.276	  0.801
41585	  0.031	 -0.356	  0.337	 -1.912	  3.874	 -6.419	  0.326	  0.563	  0.535	 27.200	 99.276	  0.801
41635	  0.020	 -0.356	  0.339	 -4.712	  3.729	 -8.753	 -0.293	 -0.769	  0.476	 27.200	 99.280	  0.442
41685	  0.058	 -0.358	  0.334	 -4.865	  5.354	 -9.812	 -0.077	 -0.755	 -1.989	 27.200	 99.276	  0.801
41735	  0.059	 -0.368	  0.331	 -3.511	  3.403	 -9.215	 -0.659	  1.854	  1.115	 27.200	 99.287	 -0.188
41785	  0.021	 -0.382	  0.316	 -1.567	  2.833	 -7.291	 -0.592	  0.331	  0.045	 27.200	 99.280	  0.442
41834	  0.048	 -0.386	  0.315	 -3.616	  4.571	 -8.241	  0.811	 -2.325	 -0.534	 27.200	 99.276	  0.801
41885	  0.116	 -0.368	  0.316	 -5.131	  3.881	 -9.847	  0.630	 -0.941	 -0.328	 27.200	 99.280	  0.442
41935	  0.080	 -0.359	  0.331	 -5.560	  4.122	 -7.003	 -0.114	  1.425	  0.190	 27.200	 99.276	  0.801
41985	  0.045	 -0.367	  0.328	 -2.284	  2.522	 -6.025	 -0.496	  1.843	  0.252	 27.200	 99.291	 -0.547
42035	  0.027	 -0.377	  0.327	 -1.544	  3.112	 -7.957	 -0.044	 -1.191	  0.019	 27.200	 99.280	  0.442
42085	  0.083	 -0.353	  0.330	 -5.669	  2.435	 -12.278	  0.378	 -2.839	 -0.732	 27.200	 99.280	  0.442
42135	  0.083	 -0.349	  0.341	 -5.885	  4.531	 -8.082	  0.345	  2.284	  0.516	 27.200	 99.280	  0.442
42185	  0.036	 -0.364	  0.335	 -2.571	  4.077	 -6.484	 -0.030	  0.933	  0.437	 27.200	 99.280	  0.442
42235	  0.032	 -0.352	  0.343	 -1.248	  1.275	 -7.558	  0.292	 -1.333	 -0.031	 27.200	 99.280	  0.442
42285	  0.084	 -0.356	  0.336	 -5.969	  1.718	 -12.259	 -1.056	 -2.526	 -0.433	 27.200	 99.280	  0.442
42335	  0.065	 -0.364	  0.330	 -6.673	  5.459	 -7.329	 -0.099	  2.915	  0.289	 27.200	 99.280	  0.442
42385	  0.025	 -0.385	  0.322	  0.231	  3.866	 -6.325	 -0.448	  0.680	  0.686	 27.200	 99.276	  0.801
42435	  0.034	 -0.376	  0.324	 -4.344	  4.132	 -9.560	  1.086	 -1.704	  0.046	 27.200	 99.291	 -0.547
42485	  0.071	 -0.366	  0.329	 -5.132	  3.554	 -8.771	  0.078	  0.244	 -0.490	 27.200	 99.269	  1.431
42535	  0.037	 -0.374	  0.329	 -1.842	  4.917	 -4.938	 -0.872	  1.481	 -0.475	 27.200	 99.280	  0.442
42585	  0.022	 -0.372	  0.332	 -1.531	  2.000	 -8.876	  0.649	 -0.631	  0.765	 27.200	 99.280	  0.442
42635	  0.043	 -0.357	  0.338	 -5.205	  1.601	 -11.808	 -0.279	 -1.828	 -0.228	 27.200	 99.280	  0.442
42685	  0.040	 -0.369	  0.332	 -4.837	  5.568	 -6.913	 -1.071	  2.088	 -0.541	 27.200	 99.276	  0.801
42735	  0.021	 -0.387	  0.316	  0.806	  3.664	 -7.966	  0.308	  0.570	  0.936	 27.200	 99.276	  0.801
42785	  0.021	 -0.374	  0.331	 -4.095	  3.489	 -9.755	  1.325	 -1.910	  0.410	 27.200	 99.291	 -0.547
42835	  0.066	 -0.359	  0.334	 -3.770	  4.677	 -8.882	 -0.083	  0.705	 -0.320	 27.200	 99.291	 -0.547
42885	  0.033	 -0.382	  0.313	 -1.921	  5.656	 -5.412	 -1.756	  1.283	 -0.581	 27.200	 99.265	  1.790
42935	  0.019	 -0.398	  0.316	 -2.007	  3.761	 -9.157	  0.648	 -1.438	  0.833	 27.200	 99.280	  0.442
42985	  0.071	 -0.370	  0.328	 -6.535	  2.013	 -7.272	  0.970	 -3.148	 -0.350	 27.200	 99.280	  0.442
43035	  0.051	 -0.360	  0.336	 -5.697	  5.344	 -5.971	 -1.181	  1.994	 -0.509	 27.200	 99.280	  0.442
43085	  0.032	 -0.392	  0.304	 -0.959	  4.034	 -8.912	 -0.438	 -0.180	  0.664	 27.200	 99.280	  0.442
43135	  0.054	 -0.386	  0.320	 -5.094	  2.375	 -11.616	  0.932	 -2.332	 -0.379	 27.200	 99.280	  0.442
43185	  0.048	 -0.373	  0.334	 -5.144	  4.945	 -5.877	 -0.457	  2.106	 -0.363	 27.200	 99.280	  0.442
43235	  0.034	 -0.392	  0.314	 -0.694	  3.805	 -8.665	 -0.717	 -0.353	  0.624	 27.200	 99.280	  0.442
43285	  0.050	 -0.383	  0.324	 -4.270	  1.449	 -11.236	  1.229	 -2.250	 -0.048	 27.200	 99.280	  0.442
43335	  0.061	 -0.367	  0.339	 -5.740	  4.656	 -5.776	 -0.445	  1.722	 -0.339	 27.200	 99.276	  0.801
43385	  0.046	 -0.397	  0.306	  0.865	  3.480	 -6.539	 -1.485	  0.425	  0.214	 27.200	 99.284	  0.082
43435	  0.044	 -0.395	  0.312	 -3.802	  2.112	 -11.543	  1.563	 -1.574	  0.399	 27.200	 99.280	  0.442
43485	  0.075	 -0.369	  0.326	 -4.785	  3.979	 -5.292	  0.424	  1.538	 -0.298	 27.200	 99.280	  0.442
43535	  0.044	 -0.395	  0.309	 -2.650	  5.940	 -5.596	 -2.280	  1.481	 -0.705	 27.200	 99.291	 -0.547
43585	  0.033	 -0.411	  0.301	 -2.176	  4.576	 -9.676	  1.095	 -1.054	  0.919	 27.200	 99.280	  0.442
43635	  0.090	 -0.380	  0.321	 -11.200	  0.372	 -8.663	  1.185	 -4.505	 -0.608	 27.200	 99.265	  1.790
43685	  0.075	 -0.370	  0.335	 -8.033	  6.487	 -6.707	 -1.226	  2.461	 -0.184	 27.200	 99.280	  0.442
43735	  0.039	 -0.411	  0.300	  1.032	  2.373	 -7.487	 -1.726	  0.586	  0.509	 27.200	 99.284	  0.082
43785	  0.058	 -0.401	  0.308	 -5.184	  2.857	 -14.263	  1.783	 -3.500	 -0.379	 27.200	 99.291	 -0.547
43835	  0.095	 -0.362	  0.329	 -3.105	  2.943	 -0.751	  2.092	  2.471	  0.321	 27.200	 99.291	 -0.547
43885	  0.036	 -0.382	  0.325	 -0.651	  2.948	 -2.914	 -3.192	  2.186	 -0.240	 27.200	 99.280	  0.442
43935	  0.036	 -0.413	  0.303	 -4.640	  5.146	 -12.960	  1.084	 -2.258	 -0.078	 27.200	 99.280	  0.442
43985	  0.095	 -0.375	  0.331	 -4.223	  4.633	 -6.952	  2.667	  1.103	 -0.040	 27.200	 99.284	  0.082
44035	  0.052	 -0.347	  0.355	 -6.364	  5.772	 -5.299	 -0.810	  1.951	 -0.238	 27.200	 99.284	  0.082
44085	  0.042	 -0.367	  0.342	 -3.319	  3.579	 -8.593	 -0.571	  0.498	 -1.407	 27.300	 99.284	  0.082
44135	  0.056	 -0.375	  0.337	 -2.290	  1.525	 -9.196	 -0.309	  0.475	 -0.962	 27.300	 99.284	  0.082
44185	  0.060	 -0.389	  0.328	 -3.300	  2.518	 -10.342	 -0.565	  0.238	 -0.789	 27.200	 99.269	  1.431
44235	  0.080	 -0.394	  0.322	 -3.092	  2.216	 -10.228	 -0.297	 -0.661	 -0.446	 27.200	 99.280	  0.442
44285	  0.079	 -0.412	  0.303	 -3.594	  2.340	 -7.652	 -1.661	 -0.227	  0.288	 27.300	 99.284	  0.082
44335	  0.089	 -0.429	  0.294	 -2.555	  2.685	 -8.115	 -0.331	 -0.362	 -0.244	 27.200	 99.284	  0.082
44385	  0.087	 -0.414	  0.290	 -3.754	  3.786	 -7.418	  0.200	  0.018	  0.321	 27.300	 99.284	  0.082
44435	  0.091	 -0.427	  0.291	 -3.502	  3.473	 -7.739	 -0.150	  0.058	  0.039	 27.300	 99.284	  0.082
44485	  0.084	 -0.421	  0.287	 -4.213	  5.156	 -8.663	 -0.179	  0.101	 -0.365	 27.200	 99.269	  1.431
44535	  0.090	 -0.427	  0.291	 -3.626	  5.039	 -8.829	  0.272	  0.146	 -0.268	 27.200	 99.280	  0.442
44585	  0.093	 -0.423	  0.291	 -4.355	  4.446	 -10.963	  0.436	 -1.100	  0.102	 27.200	 99.291	 -0.547
44635	  0.089	 -0.424	  0.290	 -4.836	  2.648	 -8.115	 -0.959	 -0.470	 -0.184	 27.200	 99.296	 -0.997
44685	  0.118	 -0.435	  0.274	 -4.396	  5.084	 -7.907	 -0.383	 -0.511	 -0.794	 27.200	 99.269	  1.431
44735	  0.128	 -0.432	  0.273	 -4.012	  4.812	 -7.764	  0.395	  0.205	  0.209	 27.200	 99.273	  1.070
44785	  0.113	 -0.422	  0.286	 -4.142	  3.958	 -6.979	  0.555	  0.291	  0.122	 27.200	 99.269	  1.431
44835	  0.113	 -0.413	  0.294	 -3.790	  3.817	 -8.365	  0.802	 -0.206	  0.172	 27.300	 99.284	  0.082
44885	  0.130	 -0.400	  0.305	 -4.197	  4.477	 -4.464	  0.689	 -0.312	  0.248	 27.200	 99.280	  0.442
44935	  0.140	 -0.390	  0.312	 -5.199	  2.472	 -8.614	  0.372	 -0.866	 -0.127	 27.200	 99.284	  0.082
44985	  0.147	 -0.383	  0.315	 -5.504	  2.023	 -9.175	  0.095	  0.103	 -0.195	 27.200	 99.280	  0.442
45035	  0.128	 -0.405	  0.299	 -4.430	  2.751	 -5.654	 -2.851	  2.019	 -0.161	 27.300	 99.284	  0.082
45085	  0.114	 -0.444	  0.259	 -2.590	  7.715	 -6.118	 -0.976	 -0.779	  0.129	 27.300	 99.273	  1.070
45135	  0.149	 -0.405	  0.289	 -5.824	  2.608	 -9.138	  5.137	 -3.628	  0.580	 27.300	 99.284	  0.082
45185	  0.182	 -0.383	  0.296	 -6.651	  2.853	 -8.663	 -1.231	 -0.046	 -0.405	 27.300	 99.291	 -0.547
45235	  0.146	 -0.414	  0.285	 -4.677	  3.757	 -3.386	 -2.865	  2.591	 -0.018	 27.300	 99.273	  1.070
45285	  0.142	 -0.434	  0.266	 -3.032	  5.133	 -8.600	  1.412	 -0.934	  0.118	 27.300	 99.284	  0.082
45335	  0.151	 -0.394	  0.303	 -4.934	  2.498	 -8.133	  1.815	 -0.189	  0.219	 27.300	 99.273	  1.070
45385	  0.145	 -0.381	  0.312	 -5.341	  3.512	 -7.062	 -0.901	  0.316	  0.067	 27.300	 99.273	  1.070
45435	  0.122	 -0.421	  0.282	 -3.948	  1.971	 -7.294	 -1.229	  0.579	  1.253	 27.300	 99.273	  1.070
45485	  0.103	 -0.433	  0.276	 -5.265	  5.007	 -8.839	 -0.244	 -0.942	  0.625	 27.300	 99.262	  2.060
45535	  0.107	 -0.430	  0.275	 -3.975	  4.866	 -6.261	 -0.308	  0.064	  0.871	 27.300	 99.284	  0.082
45585	  0.083	 -0.441	  0.258	 -3.945	  5.706	 -5.013	 -1.064	 -0.500	  0.218	 27.300	 99.284	  0.082
45635	  0.106	 -0.453	  0.247	 -4.363	  6.368	 -7.614	 -0.558	 -0.428	 -0.617	 27.300	 99.284	  0.082
45685	  0.096	 -0.457	  0.235	 -4.692	  4.283	 -7.643	  0.324	  0.900	  1.017	 27.300	 99.284	  0.082
45735	  0.066	 -0.463	  0.242	 -3.850	  6.275	 -5.902	 -0.164	  1.518	  0.274	 27.300	 99.284	  0.082
45785	  0.057	 -0.465	  0.245	 -2.260	  5.260	 -6.563	  0.131	 -0.666	  0.258	 27.300	 99.284	  0.082
45835	  0.084	 -0.446	  0.263	 -4.932	  4.674	 -8.650	  1.304	 -2.238	 -0.862	 27.300	 99.284	  0.082
45885	  0.108	 -0.444	  0.253	 -4.992	  4.314	 -6.976	 -0.300	  0.616	  0.176	 27.300	 99.284	  0.082
45935	  0.075	 -0.449	  0.260	 -4.431	  6.613	 -4.516	 -0.220	  1.755	  0.233	 27.300	 99.284	  0.082
45985	  0.062	 -0.441	  0.259	 -2.707	  5.036	 -6.981	  0.484	 -1.022	  0.020	 27.300	 99.277	  0.711
46035	  0.104	 -0.437	  0.271	 -5.612	  4.471	 -10.301	  0.342	 -2.863	 -1.056	 27.300	 99.273	  1.070
46085	  0.102	 -0.436	  0.271	 -6.436	  5.829	 -7.557	 -0.328	  2.208	  1.031	 27.300	 99.273	  1.070
46135	  0.056	 -0.439	  0.262	 -1.922	  4.089	 -4.619	 -0.513	  0.836	  0.114	 27.300	 99.277	  0.711
46185	  0.063	 -0.438	  0.268	 -3.924	  5.583	 -8.306	  1.237	 -1.936	 -0.216	 27.300	 99.284	  0.082
46235	  0.121	 -0.430	  0.269	 -5.843	  2.987	 -11.210	 -0.004	  0.083	 -0.218	 27.300	 99.273	  1.070
46285	  0.078	 -0.438	  0.272	 -5.951	  5.833	 -5.081	 -1.323	  2.195	  0.384	 27.300	 99.273	  1.070
46335	  0.052	 -0.455	  0.252	 -1.752	  5.370	 -7.033	 -0.307	 -0.205	  0.512	 27.200	 99.269	  1.431
46385	  0.081	 -0.441	  0.265	 -4.443	  4.707	 -10.265	  1.253	 -2.550	 -0.824	 27.300	 99.273	  1.070
46435	  0.100	 -0.434	  0.267	 -5.168	  3.908	 -4.845	  0.077	  1.926	  0.608	 27.300	 99.284	  0.082
46485	  0.053	 -0.449	  0.266	 -2.613	  5.649	 -3.976	 -1.472	  1.483	 -0.133	 27.300	 99.273	  1.070
46535	  0.040	 -0.466	  0.253	 -2.483	  5.600	 -9.395	  0.712	 -1.125	  0.372	 27.300	 99.289	 -0.368
46585	  0.082	 -0.428	  0.278	 -4.582	  3.369	 -10.094	  1.082	 -2.353	 -0.663	 27.300	 99.289	 -0.368
46635	  0.080	 -0.433	  0.278	 -5.930	  4.935	 -5.472	 -0.793	  2.743	  0.984	 27.300	 99.277	  0.711
46685	  0.044	 -0.448	  0.263	 -1.518	  5.210	 -5.523	 -1.182	  0.417	 -0.275	 27.300	 99.273	  1.070
46735	  0.059	 -0.444	  0.261	 -4.272	  6.055	 -9.362	  1.824	 -2.343	 -0.155	 27.300	 99.284	  0.082
46785	  0.124	 -0.415	  0.273	 -5.341	  2.729	 -9.482	  0.206	 -1.792	 -0.789	 27.300	 99.273	  1.070
46835	  0.074	 -0.435	  0.274	 -6.906	  6.421	 -3.323	 -1.466	  2.703	  0.600	 27.300	 99.273	  1.070
46886	  0.055	 -0.454	  0.253	 -1.898	  5.328	 -8.052	 -0.601	 -1.167	  0.039	 27.300	 99.273	  1.070
46935	  0.100	 -0.445	  0.268	 -5.131	  4.410	 -11.249	  1.182	 -2.951	 -1.061	 27.300	 99.289	 -0.368
46985	  0.102	 -0.423	  0.281	 -5.638	  4.096	 -4.088	  0.518	  3.628	  1.207	 27.300	 99.289	 -0.368
47035	  0.049	 -0.439	  0.272	 -1.909	  3.604	 -5.755	 -1.812	  0.306	 -0.240	 27.300	 99.277	  0.711
47085	  0.081	 -0.454	  0.259	 -5.040	  7.132	 -11.948	  1.436	 -2.637	 -0.893	 27.300	 99.277	  0.711
47135	  0.125	 -0.423	  0.276	 -4.250	  2.702	 -4.052	  1.894	  2.709	  0.690	 27.300	 99.277	  0.711
47185	  0.041	 -0.416	  0.305	 -2.788	  3.183	 -2.210	 -1.860	  2.462	 -0.017	 27.300	 99.289	 -0.368
47235	  0.041	 -0.440	  0.274	 -1.511	  5.770	 -10.110	 -0.124	 -2.162	 -0.193	 27.300	 99.273	  1.070
47286	  0.117	 -0.406	  0.295	 -5.290	  4.178	 -7.122	  2.360	 -3.134	 -0.944	 27.300	 99.273	  1.070
47336	  0.084	 -0.377	  0.332	 -4.847	  3.530	 -6.148	  0.235	  2.271	  0.666	 27.300	 99.284	  0.082
47386	  0.056	 -0.393	  0.317	 -2.769	  4.618	 -7.340	 -1.414	 -0.059	 -0.832	 27.300	 99.273	  1.070
47436	  0.068	 -0.400	  0.317	 -3.118	  3.594	 -8.233	  0.935	  0.456	  0.059	 27.300	 99.277	  0.711
47486	  0.057	 -0.398	  0.330	 -4.106	  2.947	 -8.895	 -0.021	  0.515	  0.093	 27.300	 99.277	  0.711
47536	  0.054	 -0.401	  0.316	 -3.360	  3.768	 -9.226	 -0.307	  0.053	  0.054	 27.300	 99.277	  0.711
47586	  0.052	 -0.404	  0.325	 -3.855	  4.069	 -8.833	  0.094	 -0.295	  0.127	 27.300	 99.273	  1.070
47636	  0.058	 -0.401	  0.320	 -3.788	  4.232	 -8.851	 -0.074	 -0.252	 -0.065	 27.300	 99.273	  1.070
47686	  0.046	 -0.395	  0.327	 -3.096	  3.440	 -7.141	 -0.067	  1.239	  0.404	 27.300	 99.289	 -0.368
47736	  0.027	 -0.402	  0.321	 -2.293	  3.828	 -7.081	  0.072	 -0.481	  0.352	 27.300	 99.277	  0.711
47786	  0.056	 -0.388	  0.335	 -3.851	  3.699	 -8.933	  1.147	 -2.346	 -0.495	 27.300	 99.289	 -0.368
47836	  0.093	 -0.365	  0.343	 -5.115	  2.930	 -8.061	  0.854	  1.488	  0.372	 27.300	 99.277	  0.711
47886	  0.043	 -0.386	  0.335	 -5.269	  4.226	 -6.938	 -2.572	  1.684	 -0.436	 27.300	 99.289	 -0.368
47936	  0.026	 -0.417	  0.304	 -1.001	  5.528	 -7.532	 -0.602	 -0.066	  0.117	 27.300	 99.277	  0.711
47986	  0.043	 -0.405	  0.316	 -3.349	  3.954	 -10.288	  2.047	 -2.132	 -0.064	 27.300	 99.277	  0.711
48036	  0.063	 -0.363	  0.339	 -5.481	  2.910	 -6.785	  0.429	  2.088	  0.385	 27.300	 99.289	 -0.368
48086	  0.024	 -0.407	  0.315	 -2.376	  4.631	 -5.221	 -2.379	  1.122	 -0.519	 27.300	 99.289	 -0.368
48136	  0.030	 -0.426	  0.305	 -2.112	  5.592	 -9.238	  1.327	 -1.574	  0.011	 27.300	 99.277	  0.711
48186	  0.089	 -0.380	  0.335	 -4.985	  1.092	 -11.243	  1.946	 -2.295	 -0.216	 27.300	 99.277	  0.711
48236	  0.052	 -0.374	  0.348	 -6.136	  3.991	 -5.549	 -1.808	  1.985	 -0.533	 27.300	 99.277	  0.711
48286	  0.029	 -0.410	  0.305	 -0.699	  4.663	 -7.229	 -1.424	 -0.179	  0.547	 27.300	 99.289	 -0.368
48336	  0.060	 -0.407	  0.317	 -3.461	  3.272	 -11.562	  1.620	 -3.027	 -0.453	 27.300	 99.289	 -0.368
48386	  0.074	 -0.368	  0.343	 -5.372	  3.574	 -5.764	  1.171	  2.600	  0.520	 27.300	 99.277	  0.711
48436	  0.034	 -0.397	  0.317	 -2.468	  3.807	 -5.810	 -2.549	  1.728	 -0.006	 27.300	 99.277	  0.711
48486	  0.023	 -0.424	  0.306	 -2.423	  5.793	 -9.420	  0.770	 -1.524	  0.055	 27.300	 99.277	  0.711
48536	  0.089	 -0.388	  0.327	 -4.913	  2.756	 -11.032	  1.798	 -3.051	 -0.515	 27.300	 99.277	  0.711
48586	  0.047	 -0.363	  0.351	 -5.879	  3.588	 -4.857	 -1.272	  2.965	  0.257	 27.300	 99.277	  0.711
48636	  0.007	 -0.413	  0.311	 -0.815	  4.035	 -7.118	 -2.019	  0.259	  0.669	 27.300	 99.277	  0.711
48686	  0.039	 -0.402	  0.312	 -3.567	  4.949	 -11.889	  1.807	 -3.425	 -0.948	 27.300	 99.277	  0.711
48736	  0.077	 -0.355	  0.343	 -4.647	  3.219	 -5.678	  2.178	  2.919	  0.717	 27.300	 99.266	  1.700
48786	  0.014	 -0.388	  0.329	 -3.139	  3.379	 -5.625	 -3.051	  2.119	 -0.198	 27.300	 99.277	  0.711
48836	  0.006	 -0.428	  0.293	 -2.335	  6.708	 -9.964	 -0.083	 -1.697	 -0.358	 27.300	 99.282	  0.262
48886	  0.085	 -0.404	  0.319	 -4.666	  3.511	 -11.318	  2.245	 -2.866	 -0.556	 27.300	 99.277	  0.711
48936	  0.038	 -0.360	  0.350	 -5.857	  2.998	 -4.676	 -0.595	  2.951	  0.367	 27.300	 99.277	  0.711
48986	  0.002	 -0.412	  0.307	 -0.363	  3.739	 -6.818	 -2.565	 -0.084	  0.118	 27.300	 99.277	  0.711
49036	  0.063	 -0.418	  0.297	 -3.926	  5.014	 -12.440	  1.260	 -4.062	 -1.564	 27.300	 99.273	  1.070
49086	  0.073	 -0.371	  0.341	 -5.479	  3.991	 -4.760	  2.472	  4.171	  1.298	 27.300	 99.282	  0.262
49136	 -0.003	 -0.401	  0.324	 -0.842	  2.141	 -5.349	 -3.653	  1.410	 -0.180	 27.300	 99.282	  0.262
49186	  0.020	 -0.436	  0.295	 -3.374	  7.471	 -12.634	  0.815	 -3.007	 -1.372	 27.300	 99.277	  0.711
49236	  0.084	 -0.384	  0.329	 -3.520	  2.526	 -5.818	  3.605	  2.032	  0.862	 27.300	 99.282	  0.262
49286	  0.020	 -0.377	  0.341	 -4.182	  2.556	 -6.398	 -3.017	  2.346	 -0.157	 27.300	 99.282	  0.262
49336	  0.007	 -0.436	  0.293	 -2.926	  7.063	 -10.279	 -0.796	 -2.240	 -0.414	 27.300	 99.293	 -0.727
49386	  0.086	 -0.400	  0.309	 -4.123	  2.992	 -10.810	  2.826	 -2.095	 -0.416	 27.300	 99.277	  0.711
49436	  0.020	 -0.358	  0.351	 -6.774	  2.947	 -4.892	 -1.355	  3.478	  0.483	 27.300	 99.277	  0.711
49486	 -0.017	 -0.433	  0.290	  0.711	  5.585	 -8.312	 -2.627	 -1.102	  0.391	 27.300	 99.282	  0.262
49536	  0.049	 -0.428	  0.303	 -4.789	  4.668	 -12.084	  2.119	 -4.798	 -1.420	 27.300	 99.277	  0.711
49586	  0.045	 -0.359	  0.349	 -6.004	  4.484	 -5.544	  1.988	  3.325	  1.228	 27.300	 99.282	  0.262
49636	  0.002	 -0.404	  0.318	 -1.606	  2.347	 -6.173	 -3.721	  1.869	 -0.177	 27.300	 99.282	  0.262
49686	  0.011	 -0.443	  0.288	 -2.929	  7.301	 -10.406	  0.923	 -2.312	 -0.566	 27.300	 99.282	  0.262
49736	  0.069	 -0.400	  0.319	 -4.097	  3.487	 -8.014	  2.871	  0.522	  0.294	 27.300	 99.270	  1.341
49786	  0.014	 -0.386	  0.332	 -4.647	  4.033	 -5.782	 -2.450	  2.489	 -0.726	 27.300	 99.293	 -0.727
49836	 -0.007	 -0.429	  0.292	 -0.336	  4.774	 -8.517	 -0.809	 -0.704	  0.644	 27.300	 99.270	  1.341
49886	  0.025	 -0.396	  0.324	 -3.982	  3.483	 -10.864	  2.722	 -3.053	 -0.245	 27.300	 99.282	  0.262
49936	  0.047	 -0.359	  0.352	 -5.677	  3.764	 -6.776	  0.611	  1.824	  0.047	 27.300	 99.282	  0.262
49986	  0.026	 -0.391	  0.324	 -2.052	  4.375	 -5.845	 -2.542	  1.708	 -0.680	 27.300	 99.270	  1.341
50036	  0.007	 -0.419	  0.303	 -1.378	  5.471	 -7.801	  0.753	 -0.990	  0.828	 27.300	 99.282	  0.262
50086	  0.048	 -0.391	  0.333	 -7.971	  1.547	 -10.709	  1.594	 -2.976	 -0.100	 27.300	 99.293	 -0.727
50136	  0.034	 -0.366	  0.346	 -6.108	  4.848	 -7.524	 -1.117	  2.049	 -0.478	 27.300	 99.282	  0.262
50186	  0.011	 -0.421	  0.307	  0.055	  4.669	 -5.433	 -2.093	  0.734	  0.410	 27.300	 99.277	  0.711
50236	  0.028	 -0.413	  0.306	 -3.496	  3.898	 -10.948	  1.767	 -2.885	 -0.007	 27.300	 99.282	  0.262
50286	  0.077	 -0.367	  0.342	 -4.092	  3.962	 -8.267	  2.618	  0.037	  0.697	 27.300	 99.293	 -0.727
50336	  0.052	 -0.370	  0.345	 -4.663	  4.267	 -7.247	 -2.348	  1.000	 -0.899	 27.300	 99.277	  0.711
50386	  0.045	 -0.408	  0.316	 -2.590	  4.145	 -8.759	 -0.721	  0.373	  0.012	 27.300	 99.282	  0.262
50436	  0.036	 -0.405	  0.313	 -3.583	  3.798	 -8.170	  0.529	 -0.326	  0.350	 27.300	 99.275	  0.891
50486	  0.037	 -0.400	  0.321	 -4.049	  3.792	 -8.185	 -0.227	 -0.243	  0.085	 27.300	 99.270	  1.341
50536	  0.039	 -0.396	  0.316	 -3.740	  5.397	 -8.476	 -0.467	  0.051	 -0.166	 27.300	 99.270	  1.341
50586	  0.031	 -0.411	  0.306	 -3.802	  4.220	 -8.385	 -0.365	  0.057	  0.111	 27.300	 99.270	  1.341
50636	  0.034	 -0.404	  0.305	 -2.767	  3.769	 -7.357	  0.327	 -0.007	  0.024	 27.300	 99.282	  0.262
50686	  0.040	 -0.402	  0.312	 -3.167	  3.844	 -8.039	  0.555	 -0.945	  0.033	 27.300	 99.282	  0.262
50736	  0.053	 -0.396	  0.320	 -4.915	  3.343	 -8.378	  0.149	  0.385	  0.258	 27.300	 99.282	  0.262
50786	  0.032	 -0.401	  0.314	 -4.207	  5.177	 -6.508	 -1.292	  0.907	 -0.450	 27.300	 99.282	  0.262
50836	  0.027	 -0.421	  0.302	 -2.357	  4.367	 -7.506	  0.271	 -0.066	  0.258	 27.300	 99.282	  0.262
50886	  0.035	 -0.400	  0.317	 -2.841	  3.173	 -8.703	  1.026	 -1.084	 -0.022	 27.300	 99.282	  0.262
50936	  0.046	 -0.396	  0.323	 -4.253	  3.470	 -7.482	 -0.250	  0.378	 -0.057	 27.300	 99.270	  1.341
50986	  0.042	 -0.408	  0.308	 -6.141	  6.039	 -7.914	 -0.832	  0.629	 -0.193	 27.300	 99.259	  2.329
51036	  0.031	 -0.416	  0.302	 -3.405	  4.180	 -8.668	  0.022	 -0.095	  0.145	 27.300	 99.282	  0.262
51086	  0.036	 -0.397	  0.314	 -2.877	  5.609	 -7.122	  0.987	 -0.057	 -0.033	 27.300	 99.282	  0.262
51136	  0.039	 -0.403	  0.321	 -3.236	  4.712	 -7.895	 -0.560	  0.058	  0.098	 27.300	 99.282	  0.262
51186	  0.035	 -0.414	  0.308	 -3.730	  4.403	 -8.048	 -0.698	  0.205	  0.154	 27.300	 99.282	  0.262
51236	  0.025	 -0.427	  0.299	 -3.376	  4.402	 -6.615	 -0.303	  0.189	 -0.107	 27.300	 99.282	  0.262
51286	  0.028	 -0.426	  0.299	 -2.619	  4.344	 -8.014	  0.121	 -0.337	 -0.147	 27.300	 99.286	 -0.098
51336	  0.037	 -0.420	  0.300	 -3.365	  3.955	 -8.827	  0.514	 -0.371	  0.259	 27.300	 99.282	  0.262
51386	  0.030	 -0.419	  0.306	 -4.682	  4.868	 -7.640	 -0.084	  0.226	  0.138	 27.300	 99.282	  0.262
51436	  0.022	 -0.422	  0.302	 -3.830	  5.277	 -6.827	 -0.428	  0.496	  0.001	 27.300	 99.270	  1.341
51486	  0.017	 -0.427	  0.300	 -2.738	  4.526	 -7.282	  0.089	 -0.027	 -0.231	 27.300	 99.270	  1.341
51536	  0.031	 -0.417	  0.304	 -2.503	  4.027	 -9.115	  0.731	 -0.719	  0.034	 27.300	 99.282	  0.262
51586	  0.030	 -0.409	  0.315	 -4.261	  4.628	 -7.861	  0.143	  0.496	  0.645	 27.300	 99.286	 -0.098
51636	  0.013	 -0.420	  0.307	 -4.026	  5.817	 -6.724	 -0.825	  0.530	 -0.426	 27.300	 99.286	 -0.098
51686	  0.026	 -0.424	  0.293	 -3.509	  5.395	 -8.423	 -0.474	 -0.509	 -0.623	 27.300	 99.286	 -0.098
51736	  0.045	 -0.429	  0.296	 -2.932	  5.455	 -8.664	  0.863	  0.120	 -0.607	 27.300	 99.286	 -0.098
51786	  0.057	 -0.424	  0.303	 -3.423	  3.829	 -8.201	  0.032	  0.035	 -0.407	 27.300	 99.275	  0.891
51836	  0.061	 -0.432	  0.297	 -4.164	  3.184	 -8.590	 -0.315	  0.055	 -0.025	 27.300	 99.275	  0.891
51886	  0.057	 -0.433	  0.292	 -4.164	  4.933	 -7.611	  0.338	  0.495	  0.277	 27.300	 99.282	  0.262
51936	  0.049	 -0.430	  0.302	 -3.418	  4.803	 -7.834	  0.281	 -0.302	  0.355	 27.300	 99.286	 -0.098
51986	  0.056	 -0.414	  0.313	 -4.141	  4.037	 -9.232	  0.851	 -0.878	  0.130	 27.300	 99.282	  0.262
52035	  0.052	 -0.414	  0.321	 -5.960	  2.618	 -7.760	 -0.824	  1.812	 -0.037	 27.300	 99.275	  0.891
52085	  0.024	 -0.444	  0.281	 -2.158	  4.965	 -5.096	 -2.525	  1.211	 -0.340	 27.300	 99.286	 -0.098
52135	  0.018	 -0.469	  0.261	 -2.087	  6.320	 -7.398	  0.635	 -1.203	 -0.063	 27.300	 99.275	  0.891
52185	  0.049	 -0.432	  0.298	 -3.232	  5.435	 -8.461	  2.570	 -1.103	 -0.869	 27.300	 99.286	 -0.098
52235	  0.056	 -0.420	  0.310	 -4.815	  3.221	 -10.449	 -1.473	 -0.301	 -0.633	 27.300	 99.286	 -0.098
52285	  0.057	 -0.450	  0.279	 -2.681	  4.741	 -5.180	  0.626	 -0.604	  1.358	 27.300	 99.286	 -0.098
52335	  0.074	 -0.410	  0.323	 -4.869	  3.483	 -8.873	  3.161	 -2.529	  0.769	 27.300	 99.286	 -0.098
52385	  0.065	 -0.356	  0.363	 -7.787	  2.014	 -7.120	 -0.396	  2.758	 -0.447	 27.300	 99.275	  0.891
52435	  0.050	 -0.442	  0.287	 -3.278	  4.604	 -6.256	 -6.324	  1.192	 -1.969	 27.300	 99.286	 -0.098
52485	  0.049	 -0.493	  0.219	 -1.590	  8.562	 -3.725	  0.723	 -0.497	  0.740	 27.300	 99.286	 -0.098
52535	  0.065	 -0.428	  0.303	 -3.163	  3.008	 -11.304	  5.852	 -3.087	  1.426	 27.300	 99.282	  0.262
52585	  0.058	 -0.363	  0.351	 -7.605	  0.049	 -5.553	 -1.246	  2.494	 -0.524	 27.300	 99.275	  0.891
52635	  0.054	 -0.452	  0.273	 -2.357	  5.314	 -5.041	 -5.445	  1.738	 -1.319	 27.300	 99.286	 -0.098
52685	  0.068	 -0.463	  0.259	 -2.634	  8.946	 -10.239	  4.990	 -3.275	  0.664	 27.300	 99.286	 -0.098
52736	  0.084	 -0.354	  0.361	 -5.433	  1.204	 -3.627	  3.784	  0.753	  1.194	 27.300	 99.270	  1.341
52785	  0.061	 -0.397	  0.330	 -5.167	  3.256	 -6.948	 -6.075	  2.491	 -2.353	 27.300	 99.297	 -1.086
52836	  0.069	 -0.461	  0.263	 -2.090	  9.871	 -11.155	  2.710	 -2.624	  0.160	 27.300	 99.282	  0.262
52885	  0.085	 -0.337	  0.368	 -6.779	  1.639	 -6.023	  4.241	  1.490	  1.566	 27.300	 99.275	  0.891
52935	  0.063	 -0.387	  0.330	 -4.923	  1.962	 -6.988	 -6.233	  1.666	 -2.466	 27.300	 99.275	  0.891
52985	  0.084	 -0.441	  0.277	 -1.898	  9.098	 -10.292	  3.182	 -2.771	  0.427	 27.300	 99.286	 -0.098
53036	  0.090	 -0.321	  0.377	 -7.286	  1.972	 -4.185	  3.282	  0.454	  1.381	 27.300	 99.275	  0.891
53086	  0.069	 -0.376	  0.345	 -5.143	  1.471	 -7.819	 -5.705	  2.882	 -1.939	 27.300	 99.275	  0.891
53136	  0.067	 -0.454	  0.263	 -1.621	  9.389	 -6.786	 -0.537	 -1.497	 -0.573	 27.300	 99.279	  0.531
53186	  0.084	 -0.392	  0.327	 -4.964	  2.314	 -8.076	  4.729	 -0.533	  1.317	 27.300	 99.290	 -0.457
53236	  0.074	 -0.354	  0.353	 -5.882	  0.475	 -8.008	 -0.981	  0.735	  0.156	 27.300	 99.286	 -0.098
53286	  0.056	 -0.397	  0.319	 -3.754	  3.181	 -7.439	 -2.318	  0.607	  0.433	 27.300	 99.286	 -0.098
53336	  0.032	 -0.425	  0.301	 -3.998	  4.636	 -7.539	 -0.556	 -0.044	  1.437	 27.300	 99.275	  0.891
53386	  0.017	 -0.416	  0.306	 -3.664	  6.113	 -8.185	  0.441	 -0.240	  0.521	 27.300	 99.275	  0.891
53436	  0.014	 -0.407	  0.320	 -3.679	  6.383	 -6.164	  0.521	 -0.176	  0.274	 27.300	 99.286	 -0.098
53487	  0.016	 -0.400	  0.317	 -3.597	  6.029	 -7.386	 -0.219	  0.642	 -0.750	 27.300	 99.286	 -0.098
53536	  0.017	 -0.409	  0.311	 -2.428	  4.793	 -8.377	 -0.396	  0.094	 -0.384	 27.300	 99.286	 -0.098
53586	  0.024	 -0.402	  0.324	 -3.341	  4.715	 -8.641	  1.211	 -0.100	 -0.250	 27.300	 99.290	 -0.457
53636	  0.033	 -0.391	  0.333	 -3.838	  3.720	 -7.961	  0.396	  0.009	 -0.255	 27.300	 99.290	 -0.457
53686	  0.033	 -0.381	  0.338	 -4.109	  3.571	 -7.589	  0.742	 -0.048	 -0.217	 27.300	 99.275	  0.891
53736	  0.037	 -0.367	  0.358	 -3.879	  2.882	 -8.309	  0.960	 -0.192	 -0.172	 27.300	 99.279	  0.531
53786	  0.045	 -0.338	  0.372	 -3.977	  2.466	 -8.359	  1.265	 -0.198	 -0.013	 27.300	 99.263	  1.970
53836	  0.050	 -0.317	  0.381	 -4.028	  2.229	 -8.848	  0.599	 -0.163	 -0.007	 27.300	 99.279	  0.531
53886	  0.054	 -0.304	  0.395	 -3.909	  2.429	 -8.433	  0.598	 -0.128	 -0.024	 27.300	 99.290	 -0.457
53936	  0.057	 -0.288	  0.397	 -4.112	  1.787	 -8.411	  0.246	 -0.026	  0.089	 27.300	 99.290	 -0.457
53986	  0.053	 -0.295	  0.397	 -4.159	  1.977	 -8.429	 -0.287	  0.103	  0.011	 27.300	 99.275	  0.891
54036	  0.051	 -0.298	  0.389	 -4.110	  1.520	 -8.353	 -0.464	  0.167	  0.188	 27.300	 99.275	  0.891
54086	  0.042	 -0.327	  0.380	 -4.134	  2.222	 -9.079	 -1.433	  0.271	  0.232	 27.300	 99.275	  0.891
54136	  0.033	 -0.352	  0.356	 -3.882	  3.090	 -9.465	 -1.278	 -0.097	  0.290	 27.300	 99.286	 -0.098
54186	  0.030	 -0.368	  0.344	 -3.593	  4.728	 -7.770	 -0.775	 -0.179	  0.314	 27.300	 99.286	 -0.098
54236	  0.039	 -0.372	  0.342	 -3.156	  6.439	 -6.130	  0.854	  0.074	 -0.403	 27.300	 99.275	  0.891
54286	  0.060	 -0.373	  0.339	 -4.202	  2.073	 -9.011	 -0.292	 -0.966	  0.311	 27.300	 99.279	  0.531
54336	  0.051	 -0.374	  0.337	 -5.949	  2.594	 -7.613	 -0.244	  1.510	 -0.347	 27.300	 99.279	  0.531
54386	  0.025	 -0.398	  0.319	 -2.957	  5.654	 -4.656	 -1.828	  2.749	 -0.850	 27.300	 99.279	  0.531
54436	  0.014	 -0.418	  0.305	 -0.434	  6.966	 -8.730	  0.442	 -2.333	  0.272	 27.300	 99.301	 -1.446
54486	  0.084	 -0.373	  0.341	 -3.958	  0.732	 -12.773	  3.574	 -3.663	  0.818	 27.300	 99.279	  0.531
54536	  0.073	 -0.349	  0.352	 -6.596	  4.979	 -5.179	 -1.681	  1.798	 -1.029	 27.300	 99.279	  0.531
54586	  0.045	 -0.404	  0.310	 -2.729	  5.678	 -4.258	 -2.808	  2.055	 -0.835	 27.300	 99.290	 -0.457
54636	  0.044	 -0.410	  0.308	 -1.673	  7.593	 -7.535	  2.524	 -2.720	  0.907	 27.300	 99.275	  0.891
54686	  0.076	 -0.344	  0.349	 -5.478	 -1.507	 -5.132	  1.434	 -0.025	  1.409	 27.300	 99.279	  0.531
54736	  0.057	 -0.364	  0.343	 -6.303	  2.535	 -8.592	 -2.680	  2.832	 -1.280	 27.300	 99.290	 -0.457
54786	  0.028	 -0.409	  0.300	 -1.687	  7.603	 -6.385	 -0.499	 -0.810	  0.265	 27.300	 99.279	  0.531
54836	  0.079	 -0.362	  0.338	 -4.053	  3.001	 -12.610	  4.150	 -2.009	  1.086	 27.300	 99.279	  0.531
54886	  0.068	 -0.361	  0.345	 -6.199	  3.827	 -6.019	 -2.136	  1.683	 -1.258	 27.300	 99.290	 -0.457
54936	  0.029	 -0.403	  0.310	 -1.040	  5.254	 -1.870	 -2.085	  2.132	 -0.246	 27.300	 99.290	 -0.457
54986	  0.062	 -0.386	  0.325	 -3.988	  5.401	 -13.443	  4.369	 -4.059	  0.775	 27.300	 99.268	  1.520
55036	  0.071	 -0.330	  0.369	 -7.125	  2.869	 -8.257	 -0.830	  0.305	 -0.507	 27.300	 99.279	  0.531
55086	  0.059	 -0.366	  0.338	 -2.670	  5.255	 -5.567	 -2.108	  1.295	 -0.822	 27.300	 99.290	 -0.457
55136	  0.058	 -0.382	  0.330	 -3.052	  4.750	 -6.562	  0.546	 -0.143	 -0.218	 27.300	 99.283	  0.172
55186	  0.066	 -0.364	  0.343	 -4.045	  2.937	 -8.530	  0.713	  0.314	 -0.567	 27.300	 99.279	  0.531
55236	  0.065	 -0.374	  0.341	 -5.051	  2.045	 -8.921	 -0.671	  0.499	 -0.294	 27.300	 99.268	  1.520
55286	  0.063	 -0.387	  0.337	 -4.831	  2.468	 -9.119	 -0.017	 -0.091	 -0.111	 27.300	 99.279	  0.531
55336	  0.067	 -0.375	  0.344	 -4.176	  4.764	 -8.121	  0.460	 -0.435	  0.025	 27.300	 99.279	  0.531
55386	  0.069	 -0.368	  0.348	 -3.679	  4.351	 -7.464	 -0.051	  0.055	 -0.308	 27.300	 99.290	 -0.457
55436	  0.074	 -0.368	  0.344	 -4.296	  3.131	 -7.496	  0.141	  0.177	 -0.673	 27.300	 99.279	  0.531
55486	  0.080	 -0.368	  0.347	 -3.224	  3.032	 -7.610	 -0.009	  0.197	 -0.445	 27.300	 99.279	  0.531
55536	  0.093	 -0.359	  0.353	 -4.431	  2.058	 -9.423	  0.452	 -0.402	  0.073	 27.300	 99.279	  0.531
55586	  0.094	 -0.373	  0.345	 -4.213	  3.000	 -7.925	 -1.224	  0.287	 -0.569	 27.300	 99.279	  0.531
55636	  0.094	 -0.393	  0.329	 -4.393	  3.023	 -8.022	 -0.733	  0.121	 -0.306	 27.300	 99.294	 -0.817
55686	  0.101	 -0.392	  0.328	 -4.596	  2.808	 -7.806	 -0.271	  0.062	 -0.226	 27.300	 99.279	  0.531
55736	  0.114	 -0.380	  0.337	 -5.173	  1.646	 -8.101	  0.501	  0.106	  0.570	 27.300	 99.279	  0.531
55786	  0.109	 -0.396	  0.329	 -4.455	  2.409	 -8.032	 -1.629	  0.496	 -0.700	 27.300	 99.279	  0.531
55836	  0.107	 -0.420	  0.303	 -4.291	  2.408	 -8.163	 -0.633	  0.072	  0.067	 27.300	 99.279	  0.531
55886	  0.114	 -0.412	  0.313	 -0.534	  2.815	 -12.734	  0.888	 -0.443	 -0.928	 27.300	 99.279	  0.531
55936	  0.108	 -0.395	  0.322	 -4.395	  3.034	 -7.475	 -0.215	  0.473	  0.838	 27.300	 99.279	  0.531
55986	  0.103	 -0.411	  0.308	 -4.387	  3.187	 -7.836	 -0.780	  0.308	 -0.476	 27.300	 99.283	  0.172
56036	  0.104	 -0.421	  0.309	 -4.508	  2.604	 -7.928	  0.164	 -0.065	  0.382	 27.300	 99.283	  0.172
56086	  0.114	 -0.402	  0.315	 -2.958	  1.993	 -6.370	 -0.150	 -0.563	 -0.005	 27.300	 99.279	  0.531
56136	  0.101	 -0.412	  0.308	 -4.662	  3.007	 -8.240	 -0.555	 -0.138	  0.366	 27.300	 99.279	  0.531
56186	  0.106	 -0.409	  0.310	 -4.289	  2.964	 -7.585	 -0.139	 -0.028	 -0.232	 27.300	 99.279	  0.531
56236	  0.104	 -0.417	  0.304	 -4.752	  2.529	 -8.124	 -0.170	 -0.047	  0.458	 27.300	 99.268	  1.520
56286	  0.112	 -0.410	  0.311	 -5.048	  2.851	 -7.045	 -0.004	  0.029	  0.685	 27.300	 99.283	  0.172
56336	  0.100	 -0.413	  0.315	 -4.580	  3.345	 -8.487	 -0.147	 -0.008	 -0.387	 27.300	 99.279	  0.531
56386	  0.105	 -0.417	  0.308	 -4.526	  2.802	 -8.243	 -0.267	  0.176	 -0.190	 27.300	 99.283	  0.172
56436	  0.103	 -0.411	  0.306	 -4.355	  3.146	 -8.050	 -0.223	 -0.134	  0.269	 27.300	 99.283	  0.172
56486	  0.110	 -0.407	  0.307	 -4.894	  3.401	 -6.993	 -0.095	 -0.032	  0.260	 27.300	 99.283	  0.172
56536	  0.103	 -0.418	  0.301	 -4.363	  3.473	 -8.546	 -0.340	  0.026	 -0.083	 27.300	 99.279	  0.531
56586	  0.107	 -0.415	  0.305	 -4.474	  3.158	 -7.846	 -0.034	 -0.007	  0.005	 27.300	 99.283	  0.172
56636	  0.103	 -0.416	  0.303	 -4.505	  3.001	 -8.067	 -0.244	 -0.065	  0.214	 27.300	 99.283	  0.172
56686	  0.110	 -0.411	  0.307	 -4.842	  3.021	 -7.195	  0.391	 -0.126	  0.573	 27.300	 99.283	  0.172
56736	  0.101	 -0.409	  0.309	 -4.617	  3.294	 -8.792	 -0.340	 -0.076	 -0.156	 27.300	 99.279	  0.531
56786	  0.103	 -0.419	  0.303	 -4.420	  3.217	 -8.059	 -0.307	  0.121	  0.063	 27.300	 99.283	  0.172
56836	  0.100	 -0.418	  0.296	 10.066	 29.829	  8.254	  1.895	  0.050	 -1.612	 27.300	 99.272	  1.160
56886	  0.103	 -0.414	  0.307	 -4.648	  2.302	 -8.862	  0.063	  0.010	  0.787	 27.300	 99.283	  0.172
56936	  0.094	 -0.421	  0.301	 -4.471	  2.515	 -9.107	 -0.606	 -0.027	  0.127	 27.300	 99.283	  0.172
56986	  0.086	 -0.430	  0.294	 -4.387	  3.642	 -8.165	 -0.502	 -0.127	  0.707	 27.300	 99.283	  0.172
57036	  0.073	 -0.437	  0.282	 -4.359	  4.901	 -7.475	 -0.149	 -0.186	  0.452	 27.300	 99.272	  1.160
57087	  0.071	 -0.428	  0.286	 -3.991	  5.548	 -7.129	  0.195	 -0.103	  0.111	 27.300	 99.272	  1.160
57136	  0.071	 -0.424	  0.291	 -3.774	  5.210	 -7.470	  0.249	 -0.023	 -0.085	 27.300	 99.294	 -0.817
57187	  0.073	 -0.425	  0.293	 -3.894	  4.084	 -7.599	  0.150	 -0.084	  0.005	 27.300	 99.279	  0.531
57237	  0.064	 -0.421	  0.301	 -3.102	  3.904	 -11.776	 -0.047	  0.960	  0.374	 27.300	 99.272	  1.160
57287	  0.068	 -0.428	  0.287	 -3.877	  5.000	 -8.139	  0.138	  0.410	  0.160	 27.300	 99.272	  1.160
57336	  0.068	 -0.435	  0.287	 -4.020	  4.629	 -7.451	 -0.095	 -0.082	 -0.098	 27.300	 99.283	  0.172
57386	  0.072	 -0.427	  0.285	 -4.281	  4.213	 -7.740	 -0.210	  0.024	 -0.138	 27.300	 99.283	  0.172
57436	  0.067	 -0.427	  0.291	 -9.298	  7.846	 -9.953	  1.193	  2.460	  0.262	 27.300	 99.283	  0.172
57486	  0.067	 -0.435	  0.276	 -3.752	  5.252	 -8.354	 -0.238	  0.138	 -0.125	 27.300	 99.272	  1.160
57536	  0.067	 -0.443	  0.273	 -4.072	  4.751	 -8.341	  0.073	 -0.190	 -0.057	 27.300	 99.276	  0.801
57586	  0.068	 -0.437	  0.280	 -4.510	  4.008	 -8.520	 -0.051	 -0.078	 -0.088	 27.300	 99.283	  0.172
57636	  0.067	 -0.437	  0.285	 -2.184	  4.923	 -10.798	  0.301	  0.805	  0.395	 27.300	 99.272	  1.160
57686	  0.074	 -0.440	  0.279	 -3.673	  5.334	 -7.119	  0.665	  0.040	 -0.231	 27.300	 99.272	  1.160
57736	  0.080	 -0.423	  0.292	 -4.132	  4.540	 -7.956	  0.591	 -0.419	 -0.049	 27.300	 99.272	  1.160
57786	  0.083	 -0.407	  0.301	 -4.597	  4.051	 -7.421	  0.913	 -0.072	 -0.104	 27.300	 99.272	  1.160
57836	  0.088	 -0.378	  0.322	 -3.930	  3.643	 -6.663	  1.912	 -0.067	 -0.150	 27.300	 99.283	  0.172
57886	  0.089	 -0.333	  0.367	 -4.193	  2.153	 -7.566	  2.298	  0.274	 -0.266	 27.300	 99.283	  0.172
57936	  0.086	 -0.275	  0.398	 -4.254	  1.355	 -8.157	  2.223	  0.517	 -0.483	 27.300	 99.283	  0.172
57986	  0.083	 -0.231	  0.422	 -4.308	 -0.183	 -8.324	  1.689	  0.530	 -0.376	 27.300	 99.283	  0.172
58036	  0.075	 -0.188	  0.438	 -4.164	 -0.987	 -8.856	  0.902	  0.351	 -0.306	 27.300	 99.283	  0.172
58086	  0.069	 -0.170	  0.448	 -3.887	 -0.875	 -8.809	  0.254	  0.231	  0.049	 27.300	 99.283	  0.172
58136	  0.060	 -0.177	  0.450	 -3.804	 -0.543	 -9.387	 -0.417	  0.417	  0.030	 27.300	 99.283	  0.172
58186	  0.049	 -0.186	  0.448	 -3.339	  0.027	 -9.604	 -0.764	  0.381	 -0.051	 27.300	 99.283	  0.172
58236	  0.038	 -0.197	  0.441	 -3.320	  0.563	 -9.556	 -0.451	  0.329	  0.120	 27.300	 99.294	 -0.817
58286	  0.027	 -0.214	  0.441	 -3.104	  0.601	 -9.677	 -0.215	  0.241	  0.024	 27.300	 99.283	  0.172
58336	  0.022	 -0.211	  0.438	 -2.929	  0.388	 -9.709	  0.091	  0.144	 -0.035	 27.300	 99.276	  0.801
58386	  0.019	 -0.211	  0.442	 -2.848	  0.123	 -9.463	  0.430	  0.018	 -0.028	 27.300	 99.272	  1.160
58436	  0.020	 -0.199	  0.444	 -2.799	  0.055	 -9.549	  0.374	  0.038	 -0.023	 27.300	 99.283	  0.172
58487	  0.018	 -0.188	  0.443	 -2.676	 -0.182	 -9.080	  0.521	 -0.064	 -0.192	 27.300	 99.272	  1.160
58536	  0.018	 -0.182	  0.456	 -2.779	 -0.398	 -9.037	  0.688	 -0.024	 -0.097	 27.300	 99.283	  0.172
58587	  0.019	 -0.142	  0.461	 -2.786	 -0.557	 -9.043	  1.062	  0.013	 -0.370	 27.300	 99.287	 -0.188
58636	  0.020	 -0.121	  0.473	 -2.536	 -1.123	 -8.644	  1.818	 -0.018	 -0.457	 27.300	 99.272	  1.160
58687	  0.024	 -0.058	  0.473	 -2.619	 -2.450	 -8.520	  2.262	 -0.007	 -0.327	 27.300	 99.283	  0.172
58736	  0.021	  0.008	  0.484	 -2.540	 -3.295	 -8.271	  2.013	  0.142	 -0.474	 27.300	 99.272	  1.160
58787	  0.017	  0.052	  0.484	 -2.706	 -4.195	 -7.859	  1.566	  0.132	 -0.621	 27.300	 99.276	  0.801
58837	  0.013	  0.082	  0.486	 -2.918	 -5.273	 -7.739	  0.799	 -0.063	 -0.497	 27.300	 99.283	  0.172
58887	  0.013	  0.098	  0.489	 -3.051	 -5.937	 -7.718	 -0.201	 -0.159	 -0.257	 27.300	 99.283	  0.172
58937	  0.016	  0.080	  0.498	 -3.285	 -5.508	 -7.644	 -0.375	 -0.133	 -0.234	 27.300	 99.283	  0.172
58987	  0.011	  0.066	  0.500	 -2.930	 -5.143	 -8.241	 -0.556	 -0.044	 -0.194	 27.300	 99.272	  1.160
59037	  0.009	  0.053	  0.508	 -2.784	 -4.423	 -8.299	 -0.261	 -0.119	 -0.056	 27.300	 99.298	 -1.177
59087	  0.009	  0.048	  0.512	 -2.731	 -4.192	 -8.007	  0.153	 -0.231	 -0.076	 27.300	 99.283	  0.172
59137	  0.008	  0.060	  0.515	 -2.684	 -4.394	 -7.720	  0.212	 -0.270	 -0.276	 27.300	 99.272	  1.160
59187	  0.009	  0.057	  0.525	 -2.535	 -4.755	 -7.744	 -0.033	 -0.169	 -0.419	 27.300	 99.287	 -0.188
59237	  0.001	  0.053	  0.528	 -2.318	 -5.260	 -7.956	 -0.400	 -0.119	 -0.618	 27.300	 99.283	  0.172
59287	 -0.006	  0.034	  0.540	 -2.466	 -5.065	 -8.293	 -0.632	 -0.097	 -0.343	 27.300	 99.287	 -0.188
59337	 -0.011	  0.019	  0.537	 -2.925	 -4.370	 -8.246	 -0.526	 -0.199	 -0.240	 27.300	 99.287	 -0.188
59387	 -0.019	  0.011	  0.549	 -2.862	 -4.553	 -8.223	 -0.470	 -0.075	 -0.429	 27.300	 99.287	 -0.188
59437	 -0.038	 -0.009	  0.552	 -2.414	 -4.790	 -8.822	 -0.813	  0.322	 -0.555	 27.300	 99.276	  0.801
59487	 -0.057	 -0.030	  0.551	 -2.171	 -4.663	 -9.295	 -0.890	  0.076	 -0.182	 27.300	 99.287	 -0.188
59537	 -0.063	 -0.057	  0.543	 -1.484	 -4.195	 -9.187	 -0.830	 -0.334	 -0.108	 27.300	 99.276	  0.801
59587	 -0.061	 -0.078	  0.540	 -0.924	 -3.524	 -8.975	 -0.834	 -0.303	 -0.195	 27.300	 99.287	 -0.188
59637	 -0.059	 -0.100	  0.525	 -1.096	 -2.733	 -8.253	 -0.598	 -0.347	 -0.065	 27.400	 99.287	 -0.188
59687	 -0.051	 -0.095	  0.529	 -1.690	 -2.440	 -7.129	 -0.143	 -0.392	 -0.053	 27.300	 99.272	  1.160
59737	 -0.044	 -0.096	  0.523	 -2.025	 -2.418	 -7.443	 -0.003	  0.029	 -0.101	 27.300	 99.287	 -0.188
59787	 -0.052	 -0.091	  0.518	 -1.831	 -2.944	 -8.421	 -0.219	  0.514	 -0.491	 27.300	 99.283	  0.172
59837	 -0.066	 -0.092	  0.517	 -1.634	 -3.200	 -9.248	 -0.315	  0.555	 -0.365	 27.300	 99.287	 -0.188
59887	 -0.077	 -0.088	  0.506	 -1.708	 -2.888	 -9.547	 -0.134	  0.360	  0.192	 27.300	 99.287	 -0.188
59937	 -0.082	 -0.085	  0.510	 -1.785	 -2.557	 -9.469	 -0.045	  0.304	  0.175	 27.300	 99.276	  0.801
59987	 -0.090	 -0.076	  0.497	 -1.657	 -2.428	 -9.920	 -0.102	  0.351	  0.154	 27.300	 99.287	 -0.188
60037	 -0.096	 -0.069	  0.493	 -1.076	 -2.210	 -10.328	 -0.118	  0.268	  0.056	 27.300	 99.276	  0.801
60087	 -0.100	 -0.073	  0.494	 -1.030	 -1.618	 -9.805	 -0.090	 -0.079	  0.222	 27.300	 99.287	 -0.188
60137	 -0.095	 -0.076	  0.486	 -1.196	 -1.837	 -9.806	 -0.038	 -0.142	  0.099	 27.300	 99.287	 -0.188
60187	 -0.092	 -0.078	  0.486	 -1.044	 -1.972	 -9.700	 -0.256	 -0.076	 -0.139	 27.300	 99.276	  0.801
60237	 -0.090	 -0.084	  0.488	 -1.111	 -1.926	 -9.552	 -0.236	 -0.135	  0.074	 27.300	 99.287	 -0.188
60287	 -0.086	 -0.088	  0.487	 -1.218	 -1.773	 -9.363	 -0.199	 -0.177	  0.103	 27.300	 99.287	 -0.188
60337	 -0.085	 -0.091	  0.492	 -1.385	 -1.833	 -8.930	 -0.182	 -0.185	  0.090	 27.400	 99.276	  0.801
60387	 -0.083	 -0.094	  0.491	 -1.595	 -1.762	 -8.974	 -0.319	 -0.091	  0.024	 27.300	 99.287	 -0.188
60437	 -0.082	 -0.110	  0.482	 -1.584	 -1.383	 -9.100	 -0.417	 -0.039	 -0.085	 27.400	 99.291	 -0.547
60487	 -0.082	 -0.114	  0.491	 -1.536	 -0.855	 -9.111	 -0.366	 -0.071	 -0.123	 27.300	 99.294	 -0.817
60537	 -0.080	 -0.124	  0.492	 -1.745	 -0.143	 -8.865	 -0.283	 -0.063	 -0.190	 27.400	 99.303	 -1.625
60587	 -0.082	 -0.136	  0.498	 -2.096	  0.996	 -7.974	 -0.265	 -0.013	 -0.366	 27.300	 99.287	 -0.188
60637	 -0.083	 -0.141	  0.495	 -1.926	  0.598	 -7.716	 -0.346	  0.218	 -0.862	 27.300	 99.276	  0.801
60687	 -0.092	 -0.144	  0.502	 -1.216	  0.400	 -7.356	 -0.389	  0.524	 -1.143	 27.300	 99.287	 -0.188
60737	 -0.102	 -0.162	  0.505	 -0.372	 -0.515	 -8.265	 -0.830	  1.007	 -1.296	 27.300	 99.287	 -0.188
60787	 -0.122	 -0.189	  0.501	  0.487	 -0.723	 -8.584	 -1.095	  1.232	 -1.190	 27.400	 99.287	 -0.188
60837	 -0.142	 -0.228	  0.485	  0.999	 -0.458	 -9.395	 -1.930	  1.235	 -0.927	 27.400	 99.291	 -0.547
60887	 -0.158	 -0.277	  0.471	  1.303	  0.161	 -9.602	 -1.516	  1.190	 -0.178	 27.400	 99.276	  0.801
60937	 -0.174	 -0.299	  0.447	  1.108	  2.018	 -8.825	 -0.828	  1.196	 -0.404	 27.300	 99.276	  0.801
60987	 -0.180	 -0.311	  0.442	  2.274	  1.039	 -8.327	 -0.805	  1.203	 -0.195	 27.400	 99.276	  0.801
61037	 -0.195	 -0.319	  0.415	  3.301	  2.557	 -8.955	 -0.295	  1.845	 -0.228	 27.400	 99.291	 -0.547
61087	 -0.202	 -0.315	  0.405	  3.743	  2.038	 -9.104	  0.223	  1.385	  0.012	 27.300	 99.265	  1.790
61137	 -0.203	 -0.304	  0.402	  4.486	  1.644	 -9.568	  0.835	  1.235	 -0.255	 27.400	 99.287	 -0.188
61187	 -0.192	 -0.267	  0.398	  4.286	  2.887	 -8.048	  1.207	  0.575	  0.437	 27.400	 99.291	 -0.547
61237	 -0.172	 -0.219	  0.408	  4.748	  0.394	 -8.931	  1.896	  0.427	 -0.629	 27.400	 99.291	 -0.547
61287	 -0.150	 -0.185	  0.399	  5.195	  0.856	 -10.073	  1.396	  0.262	 -0.546	 27.300	 99.287	 -0.188
61337	 -0.124	 -0.152	  0.398	  5.172	 -0.673	 -9.317	  1.815	 -0.596	 -0.202	 27.400	 99.280	  0.442
61387	 -0.097	 -0.112	  0.394	  4.522	 -0.350	 -9.372	  1.498	 -0.386	 -0.043	 27.400	 99.280	  0.442
61437	 -0.070	 -0.103	  0.387	  4.327	 -1.456	 -9.022	  0.073	 -1.156	 -0.415	 27.400	 99.280	  0.442
61487	 -0.036	 -0.124	  0.375	  3.943	 -0.152	 -8.541	 -1.362	 -0.825	 -0.740	 27.400	 99.287	 -0.188
61537	 -0.018	 -0.178	  0.353	  3.504	 -0.355	 -9.746	 -2.482	  0.103	 -1.258	 27.400	 99.303	 -1.625
61587	  0.017	 -0.225	  0.319	 -2.660	 -0.830	 -15.861	 -0.888	 -3.747	  0.688	 27.400	 99.276	  0.801
61637	  0.040	 -0.223	  0.315	  1.692	  0.954	 -10.841	  1.316	  0.122	  0.013	 27.300	 99.287	 -0.188
61687	  0.040	 -0.203	  0.318	  2.643	  0.934	 -8.693	  0.636	 -0.280	 -0.157	 27.400	 99.287	 -0.188
61737	  0.056	 -0.191	  0.315	  2.181	  0.590	 -8.980	  0.151	 -0.969	  0.177	 27.400	 99.280	  0.442
61787	  0.074	 -0.181	  0.312	  2.323	 -0.399	 -7.969	  0.799	 -1.356	 -0.775	 27.400	 99.291	 -0.547
61837	  0.113	 -0.171	  0.297	 -0.033	  0.577	 -12.353	  0.013	 -1.787	 -0.807	 27.400	 99.287	 -0.188
61887	  0.123	 -0.164	  0.298	  1.135	 -0.445	 -9.148	  0.365	  0.336	 -0.526	 27.400	 99.291	 -0.547
61937	  0.135	 -0.150	  0.289	  0.533	  0.133	 -11.523	  0.131	 -0.054	 -0.589	 27.400	 99.280	  0.442
61987	  0.142	 -0.147	  0.287	  0.192	  0.678	 -9.356	  0.097	 -0.077	 -0.449	 27.400	 99.291	 -0.547
62037	  0.155	 -0.140	  0.281	  0.004	 -1.017	 -8.112	  0.145	 -0.187	 -1.695	 27.400	 99.291	 -0.547
62087	  0.166	 -0.125	  0.278	  0.164	 -0.973	 -11.524	  0.357	  0.092	 -0.903	 27.400	 99.291	 -0.547
62137	  0.169	 -0.118	  0.274	 -0.111	  0.491	 -9.718	  0.001	 -0.006	 -0.533	 27.400	 99.291	 -0.547
62187	  0.172	 -0.117	  0.274	 -0.071	  0.241	 -9.765	 -0.009	  0.007	 -0.048	 27.400	 99.291	 -0.547
62237	  0.172	 -0.116	  0.275	  0.178	 -0.010	 -9.629	 -0.015	  0.009	  0.004	 27.400	 99.291	 -0.547
62287	  0.172	 -0.113	  0.283	  0.202	 -0.073	 -9.655	  0.002	  0.001	  0.006	 27.400	 99.291	 -0.547
62337	  0.170	 -0.111	  0.279	  1.764	  2.606	 -7.816	  0.559	 -0.290	 -0.279	 27.400	 99.291	 -0.547
62387	  0.168	 -0.101	  0.280	 -0.688	 -1.558	 -10.872	  0.005	  0.019	 -0.189	 27.400	 99.280	  0.442
62437	  0.167	 -0.106	  0.284	  0.198	 -0.015	 -9.790	 -0.002	  0.000	  0.004	 27.400	 99.280	  0.442
62487	  0.160	 -0.105	  0.280	  1.438	  0.246	 -9.850	  0.027	 -0.049	 -0.251	 27.400	 99.280	  0.442
62537	  0.163	 -0.110	  0.278	  0.107	  0.005	 -9.256	  0.000	  0.002	  0.006	 27.400	 99.291	 -0.547
62587	  0.168	 -0.112	  0.271	  0.181	 -0.049	 -9.836	 -0.002	  0.005	  0.006	 27.400	 99.291	 -0.547
62637	  0.166	 -0.102	  0.279	  0.185	 -0.070	 -9.820	 -0.006	  0.003	  0.005	 27.400	 99.291	 -0.547
62687	  0.165	 -0.115	  0.276	  0.169	  0.167	 -9.522	 -0.006	  0.001	  0.005	 27.400	 99.291	 -0.547
62737	  0.162	 -0.117	  0.271	  0.152	 -0.020	 -9.498	 -0.002	  0.001	  0.005	 27.400	 99.280	  0.442
62787	  0.161	 -0.112	  0.274	  0.145	 -0.012	 -9.684	 -0.002	  0.002	  0.005	 27.400	 99.291	 -0.547
62837	  0.163	 -0.114	  0.279	  0.135	 -0.019	 -9.666	 -0.003	  0.002	  0.005	 27.400	 99.291	 -0.547
62887	  0.163	 -0.114	  0.276	  0.159	  0.016	 -9.730	 -0.003	  0.004	  0.005	 27.400	 99.291	 -0.547
62937	  0.167	 -0.112	  0.278	  0.146	 -0.015	 -9.606	 -0.004	  0.003	  0.004	 27.400	 99.291	 -0.547
62987	  0.163	 -0.111	  0.272	  0.135	  0.002	 -9.593	 -0.002	  0.003	  0.005	 27.400	 99.291	 -0.547
63037	  0.163	 -0.106	  0.277	  0.176	 -0.011	 -9.629	 -0.004	  0.003	  0.005	 27.400	 99.280	  0.442
63087	  0.164	 -0.112	  0.277	  0.147	  0.007	 -9.670	 -0.003	  0.002	  0.005	 27.400	 99.280	  0.442
63137	  0.163	 -0.109	  0.276	  0.127	 -0.044	 -9.653	 -0.004	  0.003	  0.004	 27.400	 99.280	  0.442
63187	  0.165	 -0.116	  0.273	  0.147	  0.010	 -9.651	 -0.002	  0.002	  0.005	 27.400	 99.280	  0.442
63237	  0.165	 -0.111	  0.276	  0.099	  0.006	 -9.658	 -0.002	  0.003	  0.005	 27.400	 99.284	  0.082
63287	  0.164	 -0.109	  0.276	  0.161	 -0.039	 -9.776	 -0.005	  0.003	  0.004	 27.400	 99.280	  0.442
63337	  0.163	 -0.113	  0.272	  0.117	  0.040	 -9.641	 -0.004	  0.002	  0.004	 27.400	 99.280	  0.442
63387	  0.163	 -0.112	  0.277	  0.165	 -0.027	 -9.515	 -0.003	  0.003	  0.006	 27.400	 99.280	  0.442
63437	  0.166	 -0.113	  0.278	  0.149	 -0.002	 -9.666	 -0.002	  0.002	  0.004	 27.400	 99.291	 -0.547
63487	  0.163	 -0.113	  0.272	  0.124	 -0.012	 -9.700	 -0.002	  0.004	  0.006	 27.400	 99.291	 -0.547
63537	  0.164	 -0.105	  0.279	  0.162	 -0.043	 -9.700	 -0.004	  0.003	  0.004	 27.400	 99.284	  0.082
63587	  0.163	 -0.111	  0.273	  0.139	  0.026	 -9.557	 -0.004	  0.003	  0.004	 27.400	 99.280	  0.442
63637	  0.165	 -0.111	  0.276	  0.161	 -0.018	 -9.646	 -0.002	  0.002	  0.005	 27.400	 99.280	  0.442
63687	  0.163	 -0.113	  0.275	  0.126	  0.001	 -9.623	 -0.003	  0.003	  0.004	 27.400	 99.291	 -0.547
63737	  0.161	 -0.107	  0.278	  0.144	 -0.010	 -9.706	 -0.003	  0.003	  0.005	 27.400	 99.280	  0.442
63787	  0.162	 -0.112	  0.277	  0.165	 -0.039	 -9.664	 -0.004	  0.002	  0.005	 27.400	 99.284	  0.082
63837	  0.160	 -0.114	  0.278	  0.154	 -0.009	 -9.592	 -0.002	  0.003	  0.006	 27.400	 99.280	  0.442
63887	  0.163	 -0.109	  0.277	  0.120	  0.002	 -9.639	 -0.004	  0.003	  0.005	 27.400	 99.291	 -0.547
63937	  0.162	 -0.107	  0.277	  0.148	 -0.011	 -9.673	 -0.003	  0.002	  0.005	 27.400	 99.280	  0.442
63987	  0.162	 -0.111	  0.277	  0.142	 -0.018	 -9.661	 -0.003	  0.003	  0.005	 27.400	 99.280	  0.442
64037	  0.163	 -0.105	  0.274	  0.156	 -0.027	 -9.636	 -0.003	  0.002	  0.003	 27.400	 99.280	  0.442
64087	  0.162	 -0.108	  0.274	  0.145	 -0.032	 -9.653	 -0.004	  0.001	  0.005	 27.400	 99.284	  0.082
64137	  0.167	 -0.104	  0.278	  0.155	  0.008	 -9.592	 -0.003	  0.002	  0.005	 27.400	 99.291	 -0.547
64187	  0.163	 -0.112	  0.278	  0.135	 -0.015	 -9.685	 -0.003	  0.003	  0.005	 27.400	 99.280	  0.442
64237	  0.162	 -0.111	  0.280	  0.166	 -0.014	 -9.615	 -0.003	  0.003	  0.004	 27.400	 99.280	  0.442
64287	  0.162	 -0.110	  0.275	  0.165	  0.006	 -9.627	 -0.002	  0.004	  0.005	 27.400	 99.280	  0.442
64337	  0.163	 -0.112	  0.276	  0.160	 -0.016	 -9.642	 -0.003	  0.002	  0.006	 27.400	 99.296	 -0.997
64387	  0.164	 -0.112	  0.276	  0.158	 -0.022	 -9.713	 -0.003	  0.003	  0.006	 27.400	 99.296	 -0.997
64438	  0.162	 -0.111	  0.274	  0.156	  0.005	 -9.606	 -0.004	  0.002	  0.005	 27.400	 99.284	  0.082
64487	  0.164	 -0.111	  0.277	  0.168	  0.005	 -9.662	 -0.002	  0.003	  0.004	 27.400	 99.296	 -0.997
64538	  0.162	 -0.102	  0.280	  0.167	 -0.017	 -9.609	 -0.003	  0.003	  0.004	 27.400	 99.296	 -0.997
64588	  0.164	 -0.116	  0.276	  0.130	  0.006	 -9.656	 -0.003	  0.002	  0.005	 27.400	 99.296	 -0.997
64638	  0.164	 -0.116	  0.270	  0.154	 -0.006	 -9.620	 -0.002	  0.003	  0.004	 27.400	 99.284	  0.082
64688	  0.164	 -0.116	  0.272	  0.157	 -0.008	 -9.635	 -0.003	  0.002	  0.004	 27.400	 99.284	  0.082
64738	  0.166	 -0.111	  0.277	  0.156	  0.016	 -9.646	 -0.003	  0.003	  0.005	 27.400	 99.284	  0.082
64788	  0.163	 -0.112	  0.278	  0.126	 -0.011	 -9.688	 -0.003	  0.002	  0.006	 27.400	 99.289	 -0.368
64837	  0.162	 -0.113	  0.270	  0.144	 -0.018	 -9.628	 -0.003	  0.004	  0.003	 27.400	 99.284	  0.082
64888	  0.163	 -0.111	  0.279	  0.156	  0.010	 -9.667	 -0.002	  0.002	  0.005	 27.400	 99.284	  0.082
64938	  0.162	 -0.112	  0.271	  0.155	 -0.012	 -9.613	 -0.004	  0.003	  0.005	 27.400	 99.284	  0.082
64988	  0.163	 -0.110	  0.273	  0.146	 -0.006	 -9.670	 -0.002	  0.002	  0.005	 27.400	 99.291	 -0.547
65038	  0.164	 -0.109	  0.277	  0.145	 -0.018	 -9.633	 -0.005	  0.002	  0.005	 27.400	 99.284	  0.082
65088	  0.163	 -0.109	  0.276	  0.144	 -0.007	 -9.625	 -0.004	  0.001	  0.006	 27.400	 99.284	  0.082
65138	  0.163	 -0.113	  0.275	  0.138	  0.000	 -9.635	 -0.003	  0.003	  0.005	 27.400	 99.284	  0.082
65188	  0.164	 -0.116	  0.275	  0.145	 -0.007	 -9.615	 -0.003	  0.003	  0.006	 27.400	 99.273	  1.070
65238	  0.161	 -0.111	  0.275	  0.153	 -0.001	 -9.691	 -0.003	  0.002	  0.004	 27.400	 99.284	  0.082
65288	  0.165	 -0.112	  0.275	  0.133	 -0.002	 -9.610	 -0.003	  0.003	  0.005	 27.400	 99.284	  0.082
65338	  0.166	 -0.111	  0.279	  0.150	  0.002	 -9.648	 -0.002	  0.002	  0.005	 27.400	 99.284	  0.082
65388	  0.162	 -0.113	  0.275	  0.160	  0.005	 -9.618	 -0.004	  0.004	  0.004	 27.400	 99.296	 -0.997
65438	  0.163	 -0.113	  0.271	  0.170	 -0.002	 -9.690	 -0.003	  0.003	  0.005	 27.400	 99.300	 -1.356
65488	  0.164	 -0.109	  0.277	  0.131	  0.003	 -9.636	 -0.004	  0.002	  0.004	 27.400	 99.296	 -0.997
65538	  0.163	 -0.110	  0.278	  0.164	  0.002	 -9.657	 -0.004	  0.003	  0.004	 27.400	 99.284	  0.082
65588	  0.162	 -0.111	  0.277	  0.144	 -0.023	 -9.659	 -0.002	  0.003	  0.006	 27.400	 99.284	  0.082
65638	  0.162	 -0.113	  0.276	  0.159	  0.010	 -9.679	 -0.003	  0.003	  0.003	 27.400	 99.284	  0.082
65688	  0.163	 -0.112	  0.279	  0.172	  0.010	 -9.642	 -0.003	  0.004	  0.005	 27.400	 99.273	  1.070
65738	  0.162	 -0.113	  0.276	  0.141	 -0.022	 -9.652	 -0.002	  0.002	  0.005	 27.400	 99.289	 -0.368
65788	  0.163	 -0.113	  0.278	  0.143	 -0.015	 -9.604	 -0.003	  0.004	  0.005	 27.400	 99.284	  0.082
65838	  0.164	 -0.112	  0.272	  0.134	  0.002	 -9.674	 -0.003	  0.002	  0.005	 27.400	 99.284	  0.082
65888	  0.164	 -0.113	  0.271	  0.130	 -0.023	 -9.625	 -0.003	  0.003	  0.005	 27.400	 99.289	 -0.368
65938	  0.162	 -0.111	  0.276	  0.139	  0.007	 -9.716	 -0.003	  0.003	  0.004	 27.400	 99.289	 -0.368
65988	  0.163	 -0.112	  0.272	  0.127	 -0.026	 -9.638	 -0.004	  0.004	  0.005	 27.400	 99.296	 -0.997
66038	  0.164	 -0.111	  0.272	  0.168	 -0.007	 -9.651	 -0.003	  0.002	  0.004	 27.400	 99.284	  0.082
66088	  0.163	 -0.112	  0.275	  0.133	 -0.027	 -9.627	 -0.003	  0.002	  0.004	 27.400	 99.284	  0.082
66138	  0.163	 -0.109	  0.278	  0.119	  0.003	 -9.673	 -0.004	  0.003	  0.003	 27.400	 99.289	 -0.368
66188	  0.163	 -0.108	  0.279	  0.166	 -0.017	 -9.632	 -0.003	  0.003	  0.004	 27.400	 99.296	 -0.997
66238	  0.165	 -0.112	  0.276	  0.154	 -0.003	 -9.635	 -0.004	  0.003	  0.005	 27.400	 99.284	  0.082
66288	  0.162	 -0.114	  0.276	  0.163	 -0.001	 -9.661	 -0.003	  0.003	  0.005	 27.400	 99.296	 -0.997
66338	  0.164	 -0.113	  0.278	  0.160	 -0.022	 -9.614	 -0.002	  0.002	  0.003	 27.400	 99.296	 -0.997
66388	  0.161	 -0.109	  0.275	  0.136	  0.002	 -9.680	 -0.002	  0.003	  0.004	 27.400	 99.289	 -0.368
66438	  0.163	 -0.111	  0.279	  0.163	  0.000	 -9.634	 -0.003	  0.002	  0.006	 27.400	 99.289	 -0.368
66488	  0.162	 -0.109	  0.273	  0.123	 -0.028	 -9.662	 -0.002	  0.003	  0.005	 27.400	 99.273	  1.070
66538	  0.162	 -0.112	  0.276	  0.144	 -0.006	 -9.609	 -0.004	  0.003	  0.004	 27.400	 99.284	  0.082
66588	  0.164	 -0.113	  0.276	  0.154	  0.007	 -9.640	 -0.003	  0.002	  0.006	 27.400	 99.284	  0.082
66638	  0.164	 -0.112	  0.277	  0.126	  0.022	 -9.622	 -0.004	  0.005	  0.006	 27.400	 99.289	 -0.368
66688	  0.163	 -0.111	  0.276	  0.133	 -0.009	 -9.659	 -0.003	  0.002	  0.006	 27.400	 99.284	  0.082
66738	  0.165	 -0.112	  0.278	  0.162	 -0.020	 -9.615	 -0.004	  0.003	  0.004	 27.400	 99.300	 -1.356
66788	  0.163	 -0.107	  0.277	  0.137	  0.002	 -9.697	 -0.003	  0.002	  0.005	 27.400	 99.289	 -0.368
66838	  0.163	 -0.112	  0.277	  0.177	 -0.018	 -9.608	 -0.003	  0.003	  0.005	 27.400	 99.289	 -0.368
66888	  0.162	 -0.114	  0.275	  0.135	 -0.035	 -9.695	 -0.003	  0.003	  0.004	 27.400	 99.284	  0.082
66938	  0.164	 -0.108	  0.276	  0.138	  0.007	 -9.628	 -0.004	  0.004	  0.004	 27.400	 99.289	 -0.368
66988	  0.164	 -0.112	  0.276	  0.155	 -0.025	 -9.645	 -0.003	  0.003	  0.004	 27.400	 99.284	  0.082
67038	  0.162	 -0.103	  0.273	  0.149	  0.001	 -9.597	 -0.003	  0.003	  0.004	 27.400	 99.289	 -0.368
67088	  0.162	 -0.115	  0.279	  0.132	  0.005	 -9.660	 -0.003	  0.003	  0.007	 27.400	 99.289	 -0.368
67138	  0.163	 -0.112	  0.272	  0.147	 -0.044	 -9.658	 -0.004	  0.003	  0.004	 27.400	 99.289	 -0.368
67188	  0.162	 -0.112	  0.276	  0.144	  0.012	 -9.617	 -0.003	  0.002	  0.004	 27.400	 99.289	 -0.368
67238	  0.162	 -0.111	  0.274	  0.194	 -0.003	 -9.654	 -0.005	  0.002	  0.006	 27.400	 99.289	 -0.368
67288	  0.164	 -0.104	  0.277	  0.139	 -0.039	 -9.630	 -0.003	  0.004	  0.004	 27.400	 99.289	 -0.368
67338	  0.162	 -0.108	  0.277	  0.128	  0.001	 -9.645	 -0.002	  0.003	  0.005	 27.400	 99.289	 -0.368
67388	  0.165	 -0.115	  0.277	  0.169	 -0.006	 -9.655	 -0.004	  0.003	  0.005	 27.400	 99.284	  0.082
67438	  0.164	 -0.113	  0.276	  0.071	 -0.052	 -9.659	 -0.005	  0.003	  0.004	 27.400	 99.277	  0.711
67488	  0.165	 -0.112	  0.280	  0.186	  0.073	 -9.559	 -0.002	  0.004	  0.005	 27.400	 99.277	  0.711
67538	  0.165	 -0.109	  0.277	  0.193	 -0.029	 -9.682	 -0.002	  0.001	  0.005	 27.400	 99.289	 -0.368
67588	  0.162	 -0.115	  0.275	  0.141	  0.009	 -9.645	 -0.003	  0.001	  0.006	 27.400	 99.289	 -0.368
67638	  0.164	 -0.113	  0.279	  0.122	 -0.042	 -9.703	 -0.004	  0.002	  0.006	 27.400	 99.277	  0.711
67688	  0.162	 -0.112	  0.271	  0.143	 -0.042	 -9.640	 -0.004	  0.003	  0.005	 27.400	 99.289	 -0.368
67738	  0.163	 -0.115	  0.279	  0.150	 -0.001	 -9.585	 -0.004	  0.004	  0.004	 27.400	 99.289	 -0.368
67788	  0.165	 -0.111	  0.275	  0.142	 -0.022	 -9.644	 -0.003	  0.004	  0.005	 27.400	 99.277	  0.711
67838	  0.163	 -0.112	  0.268	  0.148	 -0.005	 -9.712	 -0.002	  0.003	  0.005	 27.400	 99.289	 -0.368
67888	  0.161	 -0.111	  0.275	  0.154	  0.001	 -9.619	 -0.003	  0.003	  0.004	 27.400	 99.289	 -0.368
67938	  0.165	 -0.111	  0.277	  0.153	 -0.026	 -9.657	 -0.004	  0.002	  0.004	 27.400	 99.277	  0.711
67988	  0.166	 -0.112	  0.276	  0.160	  0.012	 -9.614	 -0.004	  0.004	  0.006	 27.400	 99.293	 -0.727
68038	  0.163	 -0.115	  0.275	  0.145	  0.006	 -9.704	 -0.003	  0.002	  0.005	 27.400	 99.289	 -0.368
68088	  0.160	 -0.111	  0.274	  0.142	 -0.022	 -9.639	 -0.004	  0.002	  0.004	 27.400	 99.289	 -0.368
68138	  0.163	 -0.111	  0.270	  0.166	  0.004	 -9.603	 -0.002	  0.002	  0.005	 27.400	 99.293	 -0.727
68188	  0.164	 -0.116	  0.277	  0.149	 -0.003	 -9.626	 -0.004	  0.002	  0.004	 27.400	 99.289	 -0.368
68238	  0.162	 -0.111	  0.275	  0.157	 -0.003	 -9.607	 -0.003	  0.003	  0.004	 27.400	 99.293	 -0.727
68288	  0.163	 -0.111	  0.278	  0.156	  0.010	 -9.678	 -0.004	  0.003	  0.005	 27.400	 99.300	 -1.356
68338	  0.163	 -0.112	  0.272	  0.160	  0.002	 -9.679	 -0.003	  0.002	  0.005	 27.400	 99.277	  0.711
68388	  0.161	 -0.112	  0.281	  0.132	 -0.024	 -9.664	 -0.003	  0.003	  0.005	 27.400	 99.289	 -0.368
68438	  0.163	 -0.107	  0.276	  0.131	 -0.006	 -9.648	 -0.002	  0.003	  0.005	 27.400	 99.282	  0.262
68488	  0.162	 -0.116	  0.273	  0.156	 -0.010	 -9.652	 -0.004	  0.002	  0.004	 27.400	 99.289	 -0.368
68538	  0.164	 -0.112	  0.277	  0.136	  0.007	 -9.597	 -0.003	  0.002	  0.005	 27.400	 99.304	 -1.716
68588	  0.163	 -0.106	  0.278	  0.140	 -0.003	 -9.630	 -0.003	  0.004	  0.004	 27.400	 99.293	 -0.727
68638	  0.164	 -0.111	  0.276	  0.133	 -0.021	 -9.643	 -0.003	  0.001	  0.004	 27.400	 99.289	 -0.368
68688	  0.163	 -0.112	  0.275	  0.139	 -0.009	 -9.740	 -0.004	  0.003	  0.005	 27.400	 99.277	  0.711
68738	  0.164	 -0.113	  0.276	  0.129	 -0.011	 -9.588	 -0.003	  0.002	  0.006	 27.400	 99.293	 -0.727
68788	  0.165	 -0.108	  0.280	  0.162	 -0.032	 -9.621	 -0.003	  0.003	  0.004	 27.400	 99.289	 -0.368
68838	  0.164	 -0.112	  0.276	  0.146	  0.007	 -9.602	 -0.004	  0.003	  0.005	 27.400	 99.293	 -0.727
68888	  0.164	 -0.104	  0.275	  0.147	 -0.028	 -9.682	 -0.002	  0.003	  0.005	 27.400	 99.277	  0.711
68938	  0.165	 -0.115	  0.275	  0.132	  0.002	 -9.642	 -0.004	  0.004	  0.004	 27.400	 99.293	 -0.727
68988	  0.164	 -0.111	  0.275	  0.137	  0.007	 -9.651	 -0.003	  0.002	  0.005	 27.400	 99.293	 -0.727
69038	  0.163	 -0.115	  0.277	  0.154	 -0.046	 -9.699	 -0.002	  0.003	  0.005	 27.400	 99.293	 -0.727
69088	  0.164	 -0.105	  0.272	  0.156	 -0.005	 -9.666	 -0.003	  0.003	  0.006	 27.400	 99.289	 -0.368
69138	  0.165	 -0.104	  0.277	  0.161	  0.002	 -9.629	 -0.003	  0.003	  0.005	 27.400	 99.293	 -0.727
69188	  0.163	 -0.116	  0.275	  0.126	  0.012	 -9.647	 -0.001	  0.002	  0.004	 27.400	 99.293	 -0.727
69238	  0.163	 -0.112	  0.276	  0.158	 -0.006	 -9.649	 -0.004	  0.003	  0.005	 27.400	 99.282	  0.262
69288	  0.163	 -0.113	  0.278	  0.151	  0.001	 -9.624	 -0.003	  0.004	  0.004	 27.400	 99.304	 -1.716
69338	  0.162	 -0.112	  0.280	  0.154	 -0.032	 -9.681	 -0.003	  0.003	  0.004	 27.400	 99.293	 -0.727
69388	  0.164	 -0.111	  0.273	  0.148	  0.002	 -9.628	 -0.003	  0.001	  0.005	 27.400	 99.289	 -0.368
69438	  0.164	 -0.111	  0.276	  0.157	 -0.035	 -9.670	 -0.003	  0.003	  0.005	 27.400	 99.293	 -0.727
69488	  0.161	 -0.109	  0.274	  0.161	 -0.015	 -9.629	 -0.002	  0.001	  0.005	 27.400	 99.293	 -0.727
69538	  0.161	 -0.116	  0.272	  0.134	 -0.006	 -9.641	 -0.004	  0.003	  0.004	 27.400	 99.282	  0.262
69588	  0.164	 -0.113	  0.279	  0.166	 -0.014	 -9.645	 -0.004	  0.003	  0.005	 27.400	 99.289	 -0.368
69638	  0.162	 -0.112	  0.273	  0.131	 -0.016	 -9.628	 -0.003	  0.004	  0.004	 27.400	 99.293	 -0.727
69688	  0.161	 -0.116	  0.273	  0.157	  0.012	 -9.638	 -0.004	  0.002	  0.006	 27.400	 99.282	  0.262
69738	  0.163	 -0.109	  0.272	  0.139	 -0.027	 -9.677	 -0.004	  0.003	  0.005	 27.400	 99.293	 -0.727
69788	  0.164	 -0.112	  0.275	  0.133	  0.011	 -9.659	 -0.003	  0.002	  0.005	 27.400	 99.293	 -0.727
69838	  0.161	 -0.112	  0.271	  0.147	 -0.022	 -9.666	 -0.003	  0.003	  0.004	 27.400	 99.289	 -0.368
69888	  0.164	 -0.102	  0.275	  0.156	  0.021	 -9.643	 -0.005	  0.003	  0.004	 27.400	 99.293	 -0.727
69938	  0.164	 -0.112	  0.275	  0.156	  0.026	 -9.676	 -0.003	  0.003	  0.006	 27.400	 99.282	  0.262
69988	  0.166	 -0.112	  0.279	  0.162	 -0.027	 -9.610	 -0.003	  0.004	  0.005	 27.400	 99.293	 -0.727
70038	  0.163	 -0.112	  0.276	  0.140	 -0.018	 -9.677	 -0.003	  0.003	  0.004	 27.400	 99.282	  0.262
70088	  0.161	 -0.114	  0.277	  0.130	 -0.008	 -9.609	 -0.004	  0.004	  0.004	 27.400	 99.297	 -1.086
70138	  0.164	 -0.112	  0.276	  0.153	 -0.007	 -9.645	 -0.002	  0.003	  0.003	 27.400	 99.293	 -0.727
70189	  0.166	 -0.111	  0.267	  0.134	  0.005	 -9.630	 -0.003	  0.002	  0.006	 27.400	 99.293	 -0.727
70238	  0.167	 -0.113	  0.274	  0.157	 -0.010	 -9.628	 -0.003	  0.002	  0.005	 27.400	 99.282	  0.262
70289	  0.163	 -0.111	  0.277	  0.163	 -0.010	 -9.638	 -0.003	  0.002	  0.005	 27.400	 99.282	  0.262
70339	  0.162	 -0.119	  0.277	  0.151	 -0.005	 -9.637	 -0.002	  0.002	  0.005	 27.400	 99.293	 -0.727
70389	  0.163	 -0.113	  0.273	  0.179	 -0.002	 -9.687	 -0.003	  0.003	  0.005	 27.400	 99.293	 -0.727
70439	  0.161	 -0.110	  0.274	  0.140	 -0.012	 -9.639	 -0.003	  0.004	  0.004	 27.400	 99.293	 -0.727
70489	  0.164	 -0.112	  0.276	  0.156	 -0.007	 -9.651	 -0.004	  0.002	  0.005	 27.400	 99.282	  0.262
70539	  0.163	 -0.116	  0.276	  0.155	 -0.030	 -9.671	 -0.004	  0.002	  0.005	 27.400	 99.282	  0.262
70589	  0.165	 -0.112	  0.273	  0.140	 -0.015	 -9.658	 -0.003	  0.003	  0.005	 27.400	 99.282	  0.262
70639	  0.163	 -0.113	  0.278	  0.149	  0.028	 -9.626	 -0.003	  0.004	  0.005	 27.400	 99.282	  0.262
70689	  0.164	 -0.102	  0.279	  0.146	 -0.010	 -9.689	 -0.002	  0.003	  0.005	 27.400	 99.282	  0.262
70739	  0.164	 -0.108	  0.280	  0.150	 -0.007	 -9.634	 -0.003	  0.004	  0.004	 27.400	 99.270	  1.341
70789	  0.164	 -0.104	  0.276	  0.163	  0.001	 -9.677	 -0.003	  0.003	  0.005	 27.400	 99.282	  0.262
70839	  0.163	 -0.116	  0.273	  0.136	 -0.012	 -9.636	 -0.002	  0.003	  0.004	 27.400	 99.293	 -0.727
70889	  0.164	 -0.111	  0.277	  0.152	  0.011	 -9.688	 -0.002	  0.003	  0.005	 27.400	 99.282	  0.262
70939	  0.163	 -0.111	  0.277	  0.137	 -0.001	 -9.611	 -0.003	  0.002	  0.005	 27.400	 99.282	  0.262
70989	  0.164	 -0.116	  0.278	  0.163	  0.010	 -9.661	 -0.004	  0.002	  0.004	 27.400	 99.282	  0.262
71039	  0.163	 -0.102	  0.274	  0.135	 -0.019	 -9.624	 -0.004	  0.003	  0.003	 27.400	 99.282	  0.262
71089	  0.162	 -0.107	  0.276	  0.144	 -0.003	 -9.686	 -0.003	  0.002	  0.005	 27.400	 99.293	 -0.727
71139	  0.164	 -0.111	  0.271	  0.138	 -0.024	 -9.642	 -0.003	  0.003	  0.006	 27.400	 99.293	 -0.727
71189	  0.165	 -0.117	  0.271	  0.155	  0.002	 -9.668	 -0.003	  0.003	  0.004	 27.400	 99.293	 -0.727
71239	  0.163	 -0.112	  0.275	  0.158	 -0.016	 -9.638	 -0.003	  0.002	  0.004	 27.400	 99.282	  0.262
71289	  0.164	 -0.115	  0.275	  0.155	  0.016	 -9.596	 -0.003	  0.002	  0.005	 27.400	 99.282	  0.262
71339	  0.164	 -0.113	  0.276	  0.159	  0.004	 -9.609	 -0.002	  0.003	  0.006	 27.400	 99.282	  0.262
71389	  0.163	 -0.109	  0.280	  0.129	 -0.015	 -9.670	 -0.004	  0.003	  0.003	 27.400	 99.282	  0.262
71439	  0.164	 -0.111	  0.279	  0.148	  0.012	 -9.678	 -0.003	  0.004	  0.004	 27.400	 99.293	 -0.727
71489	  0.164	 -0.113	  0.275	  0.150	 -0.022	 -9.637	 -0.004	  0.002	  0.006	 27.400	 99.282	  0.262
71539	  0.163	 -0.103	  0.279	  0.163	 -0.024	 -9.649	 -0.004	  0.004	  0.003	 27.400	 99.282	  0.262
71589	  0.163	 -0.111	  0.276	  0.143	  0.038	 -9.641	 -0.004	  0.003	  0.007	 27.400	 99.297	 -1.086
71639	  0.164	 -0.113	  0.278	  0.172	 -0.099	 -9.659	 -0.003	  0.003	  0.007	 27.400	 99.282	  0.262
71689	  0.162	 -0.107	  0.273	  0.141	  0.043	 -9.623	 -0.002	  0.003	  0.004	 27.400	 99.282	  0.262
71739	  0.166	 -0.106	  0.279	  0.135	 -0.021	 -9.638	 -0.003	  0.003	  0.006	 27.400	 99.282	  0.262
71789	  0.163	 -0.111	  0.272	  0.159	 -0.047	 -9.626	 -0.004	  0.003	  0.004	 27.400	 99.293	 -0.727
71839	  0.164	 -0.112	  0.270	  0.136	  0.027	 -9.704	 -0.004	  0.003	  0.005	 27.400	 99.293	 -0.727
71889	  0.161	 -0.113	  0.270	  0.140	 -0.011	 -9.618	 -0.004	  0.003	  0.006	 27.400	 99.286	 -0.098
71939	  0.162	 -0.112	  0.277	  0.134	  0.006	 -9.702	 -0.003	  0.003	  0.005	 27.400	 99.293	 -0.727
71989	  0.164	 -0.113	  0.270	  0.148	 -0.007	 -9.623	 -0.004	  0.004	  0.005	 27.400	 99.297	 -1.086
72039	  0.162	 -0.113	  0.276	  0.127	  0.012	 -9.708	 -0.002	  0.002	  0.005	 27.400	 99.282	  0.262
72089	  0.165	 -0.112	  0.271	  0.157	 -0.000	 -9.650	 -0.003	  0.003	  0.005	 27.400	 99.282	  0.262
72139	  0.162	 -0.112	  0.272	  0.140	  0.016	 -9.695	 -0.003	  0.002	  0.004	 27.400	 99.282	  0.262
72189	  0.166	 -0.115	  0.278	  0.140	 -0.016	 -9.633	 -0.004	  0.002	  0.005	 27.400	 99.293	 -0.727
72239	  0.165	 -0.110	  0.267	  0.157	 -0.014	 -9.640	 -0.003	  0.001	  0.004	 27.400	 99.286	 -0.098
72289	  0.164	 -0.116	  0.280	  0.126	 -0.007	 -9.667	 -0.003	  0.003	  0.005	 27.400	 99.282	  0.262
72339	  0.165	 -0.111	  0.270	  0.168	  0.006	 -9.645	 -0.004	  0.003	  0.004	 27.400	 99.286	 -0.098
72389	  0.164	 -0.112	  0.276	  0.145	  0.001	 -9.637	 -0.004	  0.004	  0.006	 27.400	 99.282	  0.262
72439	  0.164	 -0.112	  0.273	  0.164	 -0.004	 -9.666	 -0.003	  0.003	  0.005	 27.400	 99.286	 -0.098
72489	  0.163	 -0.104	  0.275	  0.154	 -0.026	 -9.667	 -0.003	  0.002	  0.005	 27.400	 99.293	 -0.727
72539	  0.164	 -0.113	  0.271	  0.142	  0.011	 -9.699	 -0.004	  0.003	  0.005	 27.400	 99.282	  0.262
72589	  0.164	 -0.115	  0.275	  0.137	 -0.002	 -9.620	 -0.004	  0.004	  0.005	 27.400	 99.286	 -0.098
72639	  0.163	 -0.109	  0.275	  0.163	 -0.002	 -9.652	 -0.003	  0.004	  0.005	 27.400	 99.297	 -1.086
72689	  0.163	 -0.108	  0.272	  0.140	 -0.001	 -9.650	 -0.004	  0.003	  0.004	 27.400	 99.286	 -0.098
72739	  0.166	 -0.108	  0.277	  0.169	 -0.011	 -9.637	 -0.002	  0.003	  0.005	 27.400	 99.297	 -1.086
72789	  0.164	 -0.112	  0.275	  0.158	 -0.030	 -9.696	 -0.002	  0.003	  0.005	 27.400	 99.286	 -0.098
72839	  0.163	 -0.109	  0.278	  0.166	 -0.006	 -9.621	 -0.003	  0.004	  0.005	 27.400	 99.286	 -0.098
72889	  0.163	 -0.112	  0.275	  0.151	 -0.001	 -9.706	 -0.004	  0.004	  0.004	 27.400	 99.286	 -0.098
72939	  0.163	 -0.112	  0.280	  0.149	 -0.013	 -9.615	 -0.004	  0.003	  0.006	 27.400	 99.286	 -0.098
72989	  0.164	 -0.108	  0.277	  0.137	 -0.014	 -9.654	 -0.003	  0.003	  0.004	 27.400	 99.286	 -0.098
73039	  0.164	 -0.111	  0.277	  0.164	 -0.010	 -9.657	 -0.003	  0.003	  0.005	 27.400	 99.297	 -1.086
73089	  0.162	 -0.109	  0.278	  0.169	 -0.002	 -9.679	 -0.002	  0.003	  0.004	 27.400	 99.286	 -0.098
73139	  0.165	 -0.115	  0.276	  0.142	 -0.018	 -9.619	 -0.005	  0.002	  0.005	 27.400	 99.286	 -0.098
73189	  0.164	 -0.115	  0.273	  0.148	 -0.008	 -9.656	 -0.002	  0.003	  0.005	 27.400	 99.286	 -0.098
73239	  0.164	 -0.112	  0.279	  0.149	  0.006	 -9.631	 -0.003	  0.003	  0.004	 27.400	 99.286	 -0.098
73289	  0.165	 -0.111	  0.277	  0.140	 -0.010	 -9.651	 -0.003	  0.002	  0.005	 27.400	 99.297	 -1.086
73339	  0.163	 -0.111	  0.279	  0.142	 -0.010	 -9.651	 -0.004	  0.003	  0.006	 27.400	 99.286	 -0.098
73389	  0.162	 -0.111	  0.276	  0.144	  0.002	 -9.634	 -0.003	  0.001	  0.004	 27.400	 99.279	  0.531
73439	  0.163	 -0.105	  0.275	  0.143	 -0.038	 -9.651	 -0.004	  0.003	  0.005	 27.400	 99.286	 -0.098
73489	  0.162	 -0.103	  0.279	  0.144	 -0.009	 -9.618	 -0.003	  0.001	  0.004	 27.400	 99.286	 -0.098
73539	  0.163	 -0.112	  0.273	  0.136	  0.004	 -9.628	 -0.004	  0.002	  0.004	 27.500	 99.290	 -0.457
73589	  0.161	 -0.104	  0.279	  0.135	 -0.025	 -9.651	 -0.003	  0.003	  0.005	 27.400	 99.297	 -1.086
73639	  0.163	 -0.112	  0.273	  0.163	 -0.021	 -9.650	 -0.004	  0.002	  0.005	 27.400	 99.275	  0.891
73689	  0.164	 -0.108	  0.275	  0.166	  0.012	 -9.639	 -0.004	  0.003	  0.006	 27.400	 99.286	 -0.098
73739	  0.164	 -0.113	  0.277	  0.133	 -0.018	 -9.691	 -0.005	  0.004	  0.004	 27.400	 99.286	 -0.098
73789	  0.166	 -0.112	  0.276	  0.173	  0.023	 -9.648	 -0.003	  0.003	  0.005	 27.400	 99.286	 -0.098
73839	  0.161	 -0.110	  0.278	  0.153	 -0.005	 -9.675	 -0.003	  0.003	  0.004	 27.400	 99.286	 -0.098
73889	  0.163	 -0.105	  0.280	  0.168	  0.015	 -9.609	 -0.004	  0.002	  0.004	 27.400	 99.286	 -0.098
73939	  0.163	 -0.109	  0.279	  0.141	  0.015	 -9.646	 -0.003	  0.002	  0.005	 27.500	 99.290	 -0.457
73989	  0.163	 -0.111	  0.278	  0.154	 -0.019	 -9.604	 -0.004	  0.004	  0.005	 27.400	 99.286	 -0.098
74039	  0.161	 -0.111	  0.276	  0.136	  0.006	 -9.695	 -0.003	  0.002	  0.005	 27.500	 99.290	 -0.457
74089	  0.164	 -0.116	  0.275	  0.175	 -0.025	 -9.635	 -0.003	  0.004	  0.005	 27.400	 99.297	 -1.086
74139	  0.166	 -0.114	  0.277	  0.137	 -0.017	 -9.687	 -0.004	  0.003	  0.004	 27.500	 99.290	 -0.457
74189	  0.164	 -0.115	  0.280	  0.169	  0.006	 -9.630	 -0.003	  0.003	  0.005	 27.400	 99.279	  0.531
74239	  0.161	 -0.114	  0.277	  0.131	 -0.020	 -9.662	 -0.003	  0.003	  0.004	 27.400	 99.286	 -0.098
74289	  0.161	 -0.104	  0.272	  0.171	 -0.019	 -9.604	 -0.004	  0.002	  0.004	 27.400	 99.286	 -0.098
74339	  0.162	 -0.113	  0.273	  0.133	 -0.000	 -9.654	 -0.002	  0.002	  0.004	 27.400	 99.286	 -0.098
74389	  0.165	 -0.114	  0.271	  0.154	 -0.025	 -9.606	 -0.003	  0.004	  0.005	 27.400	 99.301	 -1.446
74439	  0.166	 -0.115	  0.278	  0.141	 -0.026	 -9.673	 -0.002	  0.003	  0.005	 27.500	 99.290	 -0.457
74489	  0.163	 -0.112	  0.275	  0.185	 -0.053	 -9.620	 -0.003	  0.004	  0.004	 27.400	 99.279	  0.531
74539	  0.164	 -0.112	  0.278	  0.154	  0.025	 -9.641	 -0.003	  0.003	  0.005	 27.500	 99.290	 -0.457
74589	  0.165	 -0.106	  0.279	  0.176	 -0.019	 -9.620	 -0.003	  0.003	  0.006	 27.400	 99.290	 -0.457
74639	  0.163	 -0.105	  0.277	  0.150	  0.018	 -9.694	 -0.003	  0.002	  0.002	 27.500	 99.290	 -0.457
74689	  0.165	 -0.113	  0.273	  0.133	  0.004	 -9.645	 -0.003	  0.003	  0.006	 27.400	 99.290	 -0.457
74739	  0.166	 -0.113	  0.273	  0.169	 -0.007	 -9.619	 -0.003	  0.002	  0.005	 27.500	 99.279	  0.531
74789	  0.163	 -0.106	  0.276	  0.151	 -0.003	 -9.647	 -0.003	  0.003	  0.005	 27.400	 99.279	  0.531
74839	  0.161	 -0.116	  0.273	  0.147	  0.006	 -9.634	 -0.003	  0.003	  0.004	 27.500	 99.290	 -0.457
74889	  0.163	 -0.113	  0.278	  0.158	 -0.011	 -9.649	 -0.003	  0.002	  0.005	 27.500	 99.279	  0.531
74939	  0.163	 -0.112	  0.270	  0.148	 -0.019	 -9.621	 -0.003	  0.002	  0.005	 27.400	 99.286	 -0.098
74989	  0.167	 -0.110	  0.276	  0.138	  0.007	 -9.662	 -0.003	  0.002	  0.004	 27.500	 99.286	 -0.098
75039	  0.162	 -0.119	  0.271	  0.154	 -0.028	 -9.604	 -0.003	  0.004	  0.005	 27.400	 99.286	 -0.098
75089	  0.164	 -0.112	  0.277	  0.161	 -0.009	 -9.690	 -0.002	  0.002	  0.004	 27.500	 99.290	 -0.457
75139	  0.163	 -0.108	  0.276	  0.136	 -0.003	 -9.638	 -0.003	  0.004	  0.005	 27.400	 99.286	 -0.098
75189	  0.163	 -0.112	  0.280	  0.165	 -0.026	 -9.667	 -0.003	  0.002	  0.005	 27.400	 99.290	 -0.457
75239	  0.161	 -0.112	  0.273	  0.156	  0.000	 -9.592	 -0.003	  0.004	  0.004	 27.500	 99.301	 -1.446
75289	  0.161	 -0.109	  0.278	  0.149	 -0.003	 -9.663	 -0.003	  0.003	  0.005	 27.500	 99.290	 -0.457
75339	  0.164	 -0.108	  0.278	  0.136	 -0.007	 -9.637	 -0.003	  0.004	  0.005	 27.500	 99.290	 -0.457
75389	  0.162	 -0.112	  0.277	  0.166	 -0.003	 -9.653	 -0.004	  0.002	  0.004	 27.500	 99.290	 -0.457
75439	  0.164	 -0.111	  0.280	  0.170	 -0.020	 -9.661	 -0.004	  0.003	  0.005	 27.500	 99.279	  0.531
75489	  0.162	 -0.112	  0.273	  0.159	  0.001	 -9.648	 -0.002	  0.002	  0.006	 27.500	 99.290	 -0.457
75538	  0.165	 -0.113	  0.278	  0.134	 -0.000	 -9.620	 -0.003	  0.003	  0.004	 27.500	 99.279	  0.531
75588	  0.163	 -0.103	  0.279	  0.120	  0.006	 -9.670	 -0.004	  0.003	  0.004	 27.500	 99.290	 -0.457
75638	  0.161	 -0.111	  0.272	  0.144	 -0.027	 -9.658	 -0.003	  0.003	  0.005	 27.500	 99.290	 -0.457
75688	  0.162	 -0.116	  0.277	  0.149	 -0.014	 -9.678	 -0.003	  0.003	  0.006	 27.500	 99.290	 -0.457
75738	  0.162	 -0.112	  0.275	  0.159	  0.006	 -9.664	 -0.003	  0.005	  0.005	 27.500	 99.290	 -0.457
75788	  0.164	 -0.112	  0.272	  0.160	  0.006	 -9.614	 -0.003	  0.003	  0.005	 27.500	 99.290	 -0.457
75838	  0.165	 -0.112	  0.277	  0.142	 -0.020	 -9.690	 -0.004	  0.002	  0.004	 27.500	 99.290	 -0.457
75888	  0.163	 -0.113	  0.277	  0.147	  0.006	 -9.609	 -0.004	  0.002	  0.006	 27.500	 99.290	 -0.457
75938	  0.166	 -0.111	  0.275	  0.141	 -0.030	 -9.681	 -0.002	  0.003	  0.004	 27.500	 99.290	 -0.457
75988	  0.161	 -0.115	  0.276	  0.176	  0.001	 -9.593	 -0.004	  0.002	  0.003	 27.400	 99.286	 -0.098
76039	  0.163	 -0.112	  0.275	  0.153	 -0.006	 -9.661	 -0.004	  0.003	  0.005	 27.500	 99.306	 -1.896
76088	  0.161	 -0.104	  0.280	  0.127	 -0.026	 -9.630	 -0.003	  0.003	  0.004	 27.500	 99.290	 -0.457
76139	  0.163	 -0.111	  0.277	  0.137	  0.023	 -9.665	 -0.004	  0.003	  0.005	 27.500	 99.290	 -0.457
76189	  0.162	 -0.115	  0.277	  0.128	  0.010	 -9.644	 -0.002	  0.002	  0.006	 27.500	 99.279	  0.531
76239	  0.161	 -0.111	  0.272	  0.149	 -0.011	 -9.648	 -0.002	  0.003	  0.005	 27.500	 99.290	 -0.457
76289	  0.162	 -0.108	  0.275	  0.149	  0.011	 -9.660	 -0.002	  0.002	  0.004	 27.500	 99.294	 -0.817
76339	  0.162	 -0.112	  0.275	  0.169	 -0.015	 -9.651	 -0.003	  0.002	  0.004	 27.500	 99.279	  0.531
76389	  0.166	 -0.114	  0.271	  0.128	 -0.014	 -9.634	 -0.003	  0.002	  0.004	 27.500	 99.290	 -0.457
76439	  0.165	 -0.111	  0.277	  0.168	  0.000	 -9.636	 -0.003	  0.003	  0.004	 27.500	 99.290	 -0.457
76489	  0.164	 -0.105	  0.280	  0.164	 -0.002	 -9.653	 -0.003	  0.002	  0.004	 27.500	 99.290	 -0.457
76539	  0.164	 -0.112	  0.273	  0.176	 -0.002	 -9.646	 -0.004	  0.002	  0.004	 27.500	 99.279	  0.531
76589	  0.162	 -0.113	  0.278	  0.140	  0.003	 -9.599	 -0.003	  0.002	  0.004	 27.500	 99.279	  0.531
76639	  0.164	 -0.109	  0.277	  0.167	 -0.028	 -9.660	 -0.002	  0.002	  0.004	 27.500	 99.294	 -0.817
76689	  0.162	 -0.112	  0.279	  0.152	 -0.024	 -9.625	 -0.004	  0.003	  0.004	 27.500	 99.279	  0.531
76739	  0.163	 -0.112	  0.279	  0.129	  0.013	 -9.669	 -0.003	  0.003	  0.004	 27.500	 99.290	 -0.457
76789	  0.162	 -0.102	  0.273	  0.175	 -0.022	 -9.674	 -0.003	  0.003	  0.003	 27.500	 99.294	 -0.817
76839	  0.162	 -0.115	  0.278	  0.148	 -0.013	 -9.648	 -0.005	  0.003	  0.004	 27.500	 99.279	  0.531
76890	  0.161	 -0.106	  0.273	  0.137	 -0.026	 -9.662	 -0.003	  0.003	  0.004	 27.500	 99.283	  0.172
76939	  0.163	 -0.111	  0.278	  0.147	 -0.020	 -9.632	 -0.003	  0.003	  0.005	 27.500	 99.290	 -0.457
76989	  0.162	 -0.111	  0.275	  0.134	  0.004	 -9.722	 -0.003	  0.002	  0.005	 27.500	 99.279	  0.531
77039	  0.162	 -0.109	  0.277	  0.142	  0.007	 -9.652	 -0.002	  0.004	  0.004	 27.500	 99.279	  0.531
77089	  0.162	 -0.113	  0.273	  0.131	 -0.011	 -9.675	 -0.003	  0.002	  0.005	 27.500	 99.301	 -1.446
77139	  0.164	 -0.113	  0.280	  0.149	 -0.012	 -9.598	 -0.003	  0.004	  0.004	 27.500	 99.294	 -0.817
77189	  0.164	 -0.111	  0.271	  0.168	 -0.008	 -9.683	 -0.003	  0.003	  0.004	 27.500	 99.283	  0.172
77239	  0.164	 -0.112	  0.280	  0.138	 -0.018	 -9.617	 -0.003	  0.003	  0.004	 27.500	 99.290	 -0.457
77289	  0.162	 -0.112	  0.277	  0.148	 -0.014	 -9.659	 -0.003	  0.003	  0.005	 27.500	 99.294	 -0.817
77339	  0.163	 -0.112	  0.277	  0.129	 -0.006	 -9.621	 -0.003	  0.003	  0.006	 27.500	 99.283	  0.172
77389	  0.165	 -0.114	  0.276	  0.139	 -0.024	 -9.656	 -0.003	  0.003	  0.005	 27.500	 99.290	 -0.457
77439	  0.161	 -0.104	  0.277	  0.155	 -0.031	 -9.643	 -0.002	  0.004	  0.004	 27.500	 99.290	 -0.457
77489	  0.164	 -0.115	  0.278	  0.161	  0.014	 -9.656	 -0.002	  0.003	  0.005	 27.500	 99.283	  0.172
77539	  0.160	 -0.112	  0.273	  0.159	 -0.036	 -9.632	 -0.005	  0.002	  0.005	 27.500	 99.294	 -0.817
77589	  0.162	 -0.112	  0.271	  0.146	 -0.005	 -9.654	 -0.002	  0.004	  0.006	 27.500	 99.279	  0.531
77639	  0.163	 -0.109	  0.278	  0.169	 -0.019	 -9.615	 -0.004	  0.004	  0.005	 27.500	 99.283	  0.172
77689	  0.163	 -0.108	  0.278	  0.157	  0.000	 -9.650	 -0.004	  0.002	  0.005	 27.500	 99.283	  0.172
77739	  0.164	 -0.112	  0.268	  0.142	  0.020	 -9.629	 -0.004	  0.002	  0.006	 27.500	 99.279	  0.531
77789	  0.166	 -0.113	  0.279	  0.149	  0.003	 -9.611	 -0.002	  0.002	  0.005	 27.500	 99.283	  0.172
77839	  0.164	 -0.112	  0.275	  0.149	 -0.018	 -9.661	 -0.003	  0.003	  0.004	 27.500	 99.294	 -0.817
77889	  0.161	 -0.108	  0.280	  0.137	  0.032	 -9.630	 -0.004	  0.001	  0.004	 27.500	 99.279	  0.531
77939	  0.162	 -0.112	  0.273	  0.147	 -0.007	 -9.677	 -0.004	  0.003	  0.004	 27.500	 99.283	  0.172
77989	  0.163	 -0.112	  0.270	  0.152	  0.023	 -9.640	 -0.004	  0.004	  0.005	 27.500	 99.283	  0.172
78039	  0.164	 -0.112	  0.275	  0.156	 -0.014	 -9.676	 -0.003	  0.003	  0.006	 27.500	 99.283	  0.172
78089	  0.161	 -0.107	  0.278	  0.122	 -0.039	 -9.600	 -0.003	  0.002	  0.003	 27.500	 99.294	 -0.817
78139	  0.163	 -0.116	  0.277	  0.144	  0.018	 -9.674	 -0.002	  0.003	  0.004	 27.500	 99.283	  0.172
78189	  0.163	 -0.108	  0.277	  0.148	 -0.008	 -9.624	 -0.003	  0.002	  0.006	 27.500	 99.294	 -0.817
78239	  0.163	 -0.115	  0.273	  0.133	 -0.001	 -9.684	 -0.003	  0.001	  0.004	 27.500	 99.294	 -0.817
78289	  0.164	 -0.111	  0.275	  0.143	 -0.024	 -9.633	 -0.003	  0.003	  0.006	 27.500	 99.283	  0.172
78339	  0.163	 -0.116	  0.277	  0.172	 -0.018	 -9.650	 -0.003	  0.002	  0.003	 27.500	 99.279	  0.531
78389	  0.162	 -0.112	  0.276	  0.166	 -0.022	 -9.623	 -0.004	  0.004	  0.004	 27.500	 99.283	  0.172
78439	  0.163	 -0.112	  0.277	  0.140	 -0.010	 -9.663	 -0.003	  0.003	  0.005	 27.500	 99.294	 -0.817
78489	  0.162	 -0.101	  0.278	  0.160	 -0.023	 -9.609	 -0.004	  0.003	  0.004	 27.500	 99.283	  0.172
78539	  0.165	 -0.111	  0.273	  0.138	 -0.003	 -9.668	 -0.003	  0.001	  0.005	 27.500	 99.294	 -0.817
78589	  0.163	 -0.106	  0.278	  0.139	 -0.034	 -9.619	 -0.004	  0.003	  0.006	 27.500	 99.283	  0.172
78639	  0.163	 -0.106	  0.277	  0.144	  0.017	 -9.651	 -0.003	  0.002	  0.004	 27.500	 99.272	  1.160
78689	  0.163	 -0.112	  0.277	  0.159	  0.005	 -9.644	 -0.005	  0.002	  0.006	 27.500	 99.290	 -0.457
78739	  0.162	 -0.105	  0.278	  0.158	 -0.048	 -9.638	 -0.003	  0.003	  0.004	 27.500	 99.283	  0.172
78789	  0.166	 -0.115	  0.279	  0.162	 -0.031	 -9.636	 -0.004	  0.001	  0.004	 27.500	 99.272	  1.160
78839	  0.165	 -0.104	  0.275	  0.124	 -0.027	 -9.628	 -0.004	  0.002	  0.006	 27.500	 99.294	 -0.817
78889	  0.164	 -0.108	  0.278	  0.167	 -0.047	 -9.675	 -0.003	  0.003	  0.004	 27.500	 99.283	  0.172
78939	  0.163	 -0.112	  0.277	  0.150	  0.023	 -9.586	 -0.004	  0.003	  0.006	 27.500	 99.283	  0.172
78989	  0.163	 -0.112	  0.278	  0.141	 -0.019	 -9.672	 -0.003	  0.003	  0.004	 27.500	 99.272	  1.160
79039	  0.164	 -0.111	  0.273	  0.139	 -0.008	 -9.622	 -0.004	  0.003	  0.005	 27.500	 99.279	  0.531
79089	  0.164	 -0.115	  0.278	  0.140	 -0.025	 -9.657	 -0.003	  0.004	  0.004	 27.500	 99.283	  0.172
79139	  0.163	 -0.105	  0.277	  0.151	 -0.015	 -9.622	 -0.003	  0.003	  0.004	 27.500	 99.276	  0.801
79189	  0.160	 -0.108	  0.279	  0.128	 -0.006	 -9.660	 -0.004	  0.003	  0.004	 27.500	 99.283	  0.172
79239	  0.164	 -0.115	  0.276	  0.121	 -0.025	 -9.645	 -0.003	  0.002	  0.003	 27.500	 99.287	 -0.188
79289	  0.162	 -0.108	  0.275	  0.139	 -0.004	 -9.683	 -0.003	  0.002	  0.004	 27.500	 99.283	  0.172
79339	  0.165	 -0.115	  0.273	  0.158	 -0.030	 -9.612	 -0.004	  0.003	  0.006	 27.500	 99.283	  0.172
79389	  0.163	 -0.112	  0.271	  0.138	  0.001	 -9.673	 -0.003	  0.002	  0.005	 27.500	 99.287	 -0.188
79439	  0.164	 -0.112	  0.278	  0.147	 -0.014	 -9.637	 -0.003	  0.001	  0.005	 27.500	 99.287	 -0.188
79489	  0.159	 -0.112	  0.277	  0.144	 -0.013	 -9.648	 -0.003	  0.002	  0.005	 27.500	 99.283	  0.172
79539	  0.162	 -0.116	  0.275	  0.159	 -0.013	 -9.633	 -0.004	  0.003	  0.005	 27.500	 99.283	  0.172
79589	  0.165	 -0.114	  0.274	  0.147	  0.005	 -9.653	 -0.003	  0.003	  0.004	 27.500	 99.283	  0.172
79639	  0.163	 -0.108	  0.278	  0.143	 -0.011	 -9.595	 -0.003	  0.004	  0.005	 27.500	 99.283	  0.172
79689	  0.162	 -0.116	  0.273	  0.161	 -0.019	 -9.665	 -0.003	  0.002	  0.005	 27.500	 99.283	  0.172
79739	  0.164	 -0.113	  0.273	  0.111	 -0.016	 -9.610	 -0.003	  0.002	  0.005	 27.500	 99.287	 -0.188
79789	  0.160	 -0.113	  0.277	  0.143	  0.028	 -9.648	 -0.002	  0.003	  0.005	 27.500	 99.283	  0.172
79839	  0.164	 -0.104	  0.278	  0.151	 -0.032	 -9.678	 -0.004	  0.002	  0.005	 27.500	 99.283	  0.172
79889	  0.163	 -0.112	  0.271	  0.132	 -0.005	 -9.620	 -0.004	  0.001	  0.004	 27.500	 99.287	 -0.188
79939	  0.162	 -0.108	  0.276	  0.154	  0.004	 -9.648	 -0.003	  0.004	  0.005	 27.500	 99.283	  0.172
79989	  0.165	 -0.114	  0.276	  0.161	 -0.026	 -9.629	 -0.003	  0.002	  0.005	 27.500	 99.287	 -0.188
80039	  0.162	 -0.113	  0.273	  0.151	  0.005	 -9.675	 -0.004	  0.003	  0.004	 27.500	 99.272	  1.160
80089	  0.163	 -0.112	  0.279	  0.144	 -0.012	 -9.602	 -0.002	  0.003	  0.004	 27.500	 99.287	 -0.188
80139	  0.162	 -0.109	  0.272	  0.148	 -0.035	 -9.653	 -0.004	  0.003	  0.006	 27.500	 99.294	 -0.817
80189	  0.164	 -0.105	  0.277	  0.144	  0.012	 -9.641	 -0.003	  0.003	  0.004	 27.500	 99.287	 -0.188
80239	  0.163	 -0.112	  0.276	  0.142	  0.028	 -9.651	 -0.003	  0.002	  0.006	 27.500	 99.283	  0.172
80289	  0.163	 -0.112	  0.275	  0.159	 -0.029	 -9.600	 -0.004	  0.003	  0.004	 27.500	 99.283	  0.172
80339	  0.164	 -0.108	  0.276	  0.149	 -0.005	 -9.633	 -0.004	  0.002	  0.005	 27.500	 99.283	  0.172
80389	  0.165	 -0.113	  0.278	  0.131	 -0.016	 -9.670	 -0.003	  0.001	  0.005	 27.500	 99.287	 -0.188
80439	  0.165	 -0.109	  0.278	  0.155	 -0.008	 -9.711	 -0.003	  0.003	  0.005	 27.500	 99.287	 -0.188
80489	  0.165	 -0.111	  0.279	  0.135	  0.010	 -9.633	 -0.003	  0.003	  0.005	 27.500	 99.283	  0.172
80539	  0.164	 -0.113	  0.276	  0.151	 -0.007	 -9.634	 -0.003	  0.002	  0.005	 27.500	 99.287	 -0.188
80589	  0.163	 -0.109	  0.278	  0.153	 -0.023	 -9.653	 -0.004	  0.003	  0.005	 27.500	 99.276	  0.801
80640	  0.165	 -0.114	  0.280	  0.191	  0.007	 -9.652	 -0.004	  0.003	  0.005	 27.500	 99.276	  0.801
80690	  0.164	 -0.108	  0.276	  0.147	  0.000	 -9.614	 -0.004	  0.003	  0.005	 27.500	 99.287	 -0.188
80739	  0.161	 -0.120	  0.277	  0.147	  0.004	 -9.660	 -0.003	  0.003	  0.004	 27.500	 99.287	 -0.188
80789	  0.166	 -0.113	  0.268	  0.134	 -0.009	 -9.674	 -0.004	  0.003	  0.004	 27.500	 99.287	 -0.188
80839	  0.165	 -0.112	  0.271	  0.149	 -0.015	 -9.628	 -0.003	  0.002	  0.004	 27.500	 99.272	  1.160
80889	  0.164	 -0.112	  0.277	  0.157	  0.007	 -9.662	 -0.004	  0.003	  0.005	 27.500	 99.287	 -0.188
80939	  0.165	 -0.111	  0.275	  0.137	 -0.013	 -9.614	 -0.004	  0.003	  0.005	 27.500	 99.287	 -0.188
80989	  0.163	 -0.112	  0.278	  0.171	 -0.036	 -9.672	 -0.003	  0.002	  0.005	 27.500	 99.287	 -0.188
81039	  0.164	 -0.112	  0.280	  0.144	 -0.002	 -9.611	 -0.004	  0.003	  0.004	 27.500	 99.276	  0.801
81089	  0.165	 -0.109	  0.276	  0.147	 -0.005	 -9.683	 -0.003	  0.003	  0.004	 27.500	 99.283	  0.172
81139	  0.164	 -0.111	  0.278	  0.158	 -0.005	 -9.656	 -0.004	  0.003	  0.004	 27.500	 99.276	  0.801
81189	  0.165	 -0.112	  0.277	  0.120	 -0.019	 -9.633	 -0.003	  0.002	  0.005	 27.500	 99.287	 -0.188
81239	  0.162	 -0.109	  0.273	  0.171	 -0.009	 -9.628	 -0.002	  0.003	  0.004	 27.500	 99.276	  0.801
81289	  0.162	 -0.112	  0.279	  0.135	 -0.021	 -9.688	 -0.004	  0.002	  0.005	 27.500	 99.287	 -0.188
81339	  0.162	 -0.112	  0.270	  0.129	  0.011	 -9.642	 -0.003	  0.003	  0.005	 27.500	 99.287	 -0.188
81389	  0.163	 -0.112	  0.280	  0.148	  0.005	 -9.655	 -0.003	  0.003	  0.004	 27.500	 99.287	 -0.188
81439	  0.165	 -0.101	  0.276	  0.156	 -0.031	 -9.648	 -0.004	  0.003	  0.005	 27.500	 99.287	 -0.188
81489	  0.165	 -0.111	  0.278	  0.145	 -0.023	 -9.680	 -0.003	  0.003	  0.004	 27.500	 99.287	 -0.188
81539	  0.165	 -0.114	  0.274	  0.120	 -0.014	 -9.645	 -0.004	  0.003	  0.005	 27.500	 99.276	  0.801
81589	  0.164	 -0.113	  0.272	  0.149	 -0.028	 -9.696	 -0.003	  0.002	  0.005	 27.500	 99.299	 -1.267
81639	  0.164	 -0.113	  0.273	  0.155	 -0.009	 -9.622	 -0.005	  0.003	  0.005	 27.500	 99.287	 -0.188
81689	  0.165	 -0.109	  0.277	  0.165	 -0.002	 -9.673	 -0.003	  0.003	  0.005	 27.500	 99.287	 -0.188
81739	  0.165	 -0.112	  0.275	  0.154	  0.001	 -9.641	 -0.003	  0.004	  0.004	 27.500	 99.287	 -0.188
81789	  0.165	 -0.111	  0.275	  0.141	 -0.025	 -9.644	 -0.004	  0.003	  0.005	 27.500	 99.276	  0.801
81839	  0.166	 -0.112	  0.271	  0.171	  0.001	 -9.647	 -0.004	  0.003	  0.005	 27.500	 99.287	 -0.188
81891	  0.164	 -0.112	  0.273	  0.169	 -0.032	 -9.632	 -0.004	  0.002	  0.004	 27.500	 99.287	 -0.188
81939	  0.167	 -0.104	  0.279	  0.133	  0.010	 -9.699	 -0.004	  0.002	  0.004	 27.500	 99.287	 -0.188
81990	  0.163	 -0.105	  0.276	  0.177	 -0.032	 -9.631	 -0.004	  0.003	  0.006	 27.500	 99.276	  0.801
82040	  0.162	 -0.115	  0.279	  0.149	 -0.010	 -9.694	 -0.004	  0.002	  0.005	 27.500	 99.292	 -0.637
82090	  0.162	 -0.112	  0.276	  0.136	  0.004	 -9.606	 -0.004	  0.004	  0.005	 27.500	 99.287	 -0.188
82140	  0.163	 -0.112	  0.277	  0.140	 -0.008	 -9.644	 -0.004	  0.002	  0.005	 27.500	 99.292	 -0.637
82190	  0.164	 -0.112	  0.275	  0.160	  0.015	 -9.639	 -0.003	  0.003	  0.005	 27.500	 99.292	 -0.637
82240	  0.163	 -0.116	  0.277	  0.149	 -0.004	 -9.671	 -0.003	  0.003	  0.005	 27.500	 99.276	  0.801
82291	  0.162	 -0.101	  0.274	  0.154	 -0.027	 -9.651	 -0.003	  0.002	  0.004	 27.500	 99.276	  0.801
82340	  0.165	 -0.116	  0.277	  0.146	 -0.020	 -9.666	 -0.003	  0.003	  0.004	 27.500	 99.276	  0.801
82390	  0.164	 -0.101	  0.277	  0.136	  0.004	 -9.623	 -0.004	  0.002	  0.005	 27.500	 99.276	  0.801
82440	  0.164	 -0.109	  0.276	  0.154	  0.002	 -9.672	 -0.003	  0.003	  0.005	 27.500	 99.276	  0.801
82490	  0.165	 -0.113	  0.273	  0.143	 -0.012	 -9.613	 -0.002	  0.002	  0.003	 27.500	 99.287	 -0.188
82540	  0.164	 -0.112	  0.275	  0.167	 -0.017	 -9.642	 -0.003	  0.004	  0.004	 27.500	 99.276	  0.801
82590	  0.167	 -0.113	  0.279	  0.142	 -0.001	 -9.624	 -0.003	  0.003	  0.005	 27.500	 99.269	  1.431
82640	  0.162	 -0.109	  0.276	  0.139	 -0.017	 -9.680	 -0.002	  0.002	  0.004	 27.500	 99.276	  0.801
82690	  0.164	 -0.115	  0.278	  0.136	  0.012	 -9.656	 -0.005	  0.004	  0.004	 27.500	 99.287	 -0.188
82740	  0.163	 -0.108	  0.275	  0.143	 -0.022	 -9.666	 -0.002	  0.002	  0.006	 27.500	 99.287	 -0.188
82790	  0.165	 -0.115	  0.273	  0.132	  0.006	 -9.633	 -0.003	  0.003	  0.004	 27.500	 99.280	  0.442
82840	  0.163	 -0.111	  0.277	  0.133	 -0.001	 -9.643	 -0.003	  0.002	  0.006	 27.500	 99.276	  0.801
82890	  0.164	 -0.116	  0.269	  0.142	 -0.011	 -9.658	 -0.003	  0.003	  0.004	 27.500	 99.292	 -0.637
82940	  0.162	 -0.115	  0.276	  0.167	  0.013	 -9.639	 -0.002	  0.002	  0.005	 27.500	 99.280	  0.442
82990	  0.163	 -0.111	  0.278	  0.164	  0.006	 -9.638	 -0.003	  0.003	  0.004	 27.500	 99.276	  0.801
83040	  0.164	 -0.112	  0.279	  0.151	 -0.015	 -9.582	 -0.003	  0.003	  0.004	 27.500	 99.280	  0.442
83090	  0.164	 -0.109	  0.279	  0.147	 -0.001	 -9.657	 -0.004	  0.003	  0.005	 27.500	 99.280	  0.442
83140	  0.162	 -0.105	  0.276	  0.142	 -0.008	 -9.634	 -0.004	  0.002	  0.005	 27.500	 99.292	 -0.637
83190	  0.163	 -0.109	  0.275	  0.144	 -0.017	 -9.641	 -0.004	  0.002	  0.004	 27.500	 99.280	  0.442
83240	  0.163	 -0.112	  0.275	  0.140	 -0.006	 -9.638	 -0.002	  0.002	  0.005	 27.500	 99.280	  0.442
83290	  0.162	 -0.109	  0.275	  0.144	 -0.021	 -9.656	 -0.004	  0.003	  0.004	 27.500	 99.280	  0.442
83340	  0.164	 -0.106	  0.280	  0.133	 -0.010	 -9.631	 -0.003	  0.003	  0.005	 27.500	 99.292	 -0.637
83390	  0.162	 -0.111	  0.271	  0.152	  0.005	 -9.656	 -0.002	  0.002	  0.005	 27.500	 99.303	 -1.625
83440	  0.165	 -0.114	  0.270	  0.142	 -0.010	 -9.603	 -0.002	  0.003	  0.005	 27.500	 99.292	 -0.637
83490	  0.166	 -0.111	  0.269	  0.157	  0.017	 -9.697	 -0.003	  0.003	  0.003	 27.500	 99.292	 -0.637
83540	  0.164	 -0.115	  0.274	  0.142	 -0.005	 -9.619	 -0.003	  0.003	  0.005	 27.500	 99.292	 -0.637
83590	  0.162	 -0.105	  0.279	  0.160	 -0.017	 -9.664	 -0.002	  0.002	  0.006	 27.500	 99.280	  0.442
83640	  0.162	 -0.113	  0.278	  0.142	 -0.008	 -9.616	 -0.004	  0.003	  0.004	 27.500	 99.287	 -0.188
83690	  0.162	 -0.112	  0.277	  0.142	 -0.004	 -9.703	 -0.003	  0.001	  0.004	 27.500	 99.276	  0.801
83740	  0.163	 -0.112	  0.276	  0.148	 -0.001	 -9.640	 -0.003	  0.002	  0.004	 27.500	 99.280	  0.442
83790	  0.166	 -0.107	  0.274	  0.164	  0.013	 -9.653	 -0.002	  0.003	  0.004	 27.500	 99.280	  0.442
83840	  0.164	 -0.104	  0.277	  0.132	 -0.030	 -9.633	 -0.003	  0.003	  0.005	 27.500	 99.280	  0.442
83890	  0.163	 -0.112	  0.279	  0.121	  0.001	 -9.640	 -0.002	  0.003	  0.004	 27.500	 99.292	 -0.637
83940	  0.162	 -0.105	  0.276	  0.135	 -0.011	 -9.635	 -0.003	  0.004	  0.006	 27.500	 99.276	  0.801
83990	  0.163	 -0.113	  0.280	  0.143	  0.006	 -9.631	 -0.003	  0.002	  0.005	 27.500	 99.280	  0.442
84040	  0.162	 -0.112	  0.273	  0.148	 -0.026	 -9.661	 -0.004	  0.003	  0.005	 27.500	 99.292	 -0.637
84090	  0.166	 -0.103	  0.275	  0.146	 -0.024	 -9.606	 -0.003	  0.004	  0.004	 27.500	 99.292	 -0.637
84140	  0.165	 -0.115	  0.279	  0.149	 -0.024	 -9.663	 -0.004	  0.002	  0.004	 27.500	 99.280	  0.442
84190	  0.165	 -0.112	  0.277	  0.168	  0.006	 -9.617	 -0.005	  0.003	  0.004	 27.500	 99.280	  0.442
84240	  0.164	 -0.112	  0.275	  0.137	 -0.008	 -9.634	 -0.003	  0.003	  0.003	 27.500	 99.280	  0.442
84290	  0.162	 -0.112	  0.277	  0.149	  0.012	 -9.606	 -0.003	  0.003	  0.005	 27.500	 99.292	 -0.637
84340	  0.164	 -0.102	  0.277	  0.135	 -0.005	 -9.659	 -0.003	  0.003	  0.005	 27.500	 99.280	  0.442
84390	  0.163	 -0.112	  0.272	  0.159	 -0.003	 -9.652	 -0.004	  0.004	  0.005	 27.500	 99.280	  0.442
84440	  0.164	 -0.108	  0.277	  0.160	  0.002	 -9.728	 -0.004	  0.001	  0.005	 27.500	 99.280	  0.442
84490	  0.163	 -0.112	  0.275	  0.144	  0.002	 -9.580	 -0.004	  0.004	  0.004	 27.500	 99.280	  0.442
84540	  0.164	 -0.112	  0.279	  0.155	 -0.025	 -9.675	 -0.002	  0.003	  0.004	 27.500	 99.280	  0.442
84590	  0.161	 -0.112	  0.272	  0.121	 -0.006	 -9.614	 -0.004	  0.003	  0.004	 27.500	 99.280	  0.442
84640	  0.163	 -0.117	  0.276	  0.149	 -0.018	 -9.662	 -0.004	  0.004	  0.005	 27.500	 99.296	 -0.997
84690	  0.161	 -0.111	  0.275	  0.166	  0.004	 -9.590	 -0.002	  0.004	  0.005	 27.500	 99.292	 -0.637
84740	  0.163	 -0.112	  0.275	  0.140	  0.019	 -9.621	 -0.002	  0.001	  0.005	 27.500	 99.292	 -0.637
84790	  0.165	 -0.102	  0.278	  0.132	 -0.042	 -9.628	 -0.004	  0.003	  0.005	 27.500	 99.285	 -0.009
84840	  0.164	 -0.117	  0.274	  0.136	  0.017	 -9.672	 -0.003	  0.003	  0.004	 27.500	 99.280	  0.442
84890	  0.164	 -0.112	  0.276	  0.145	 -0.013	 -9.650	 -0.004	  0.003	  0.006	 27.500	 99.292	 -0.637
84940	  0.164	 -0.114	  0.272	  0.144	 -0.022	 -9.624	 -0.003	  0.004	  0.006	 27.500	 99.292	 -0.637
84990	  0.163	 -0.112	  0.276	  0.174	 -0.028	 -9.634	 -0.005	  0.003	  0.004	 27.500	 99.292	 -0.637
85040	  0.164	 -0.113	  0.278	  0.153	 -0.036	 -9.608	 -0.003	  0.004	  0.005	 27.500	 99.280	  0.442
