Time	 MagX	 MagY	 MagZ	 AccelX	 AccelY	 AccelZ	 Yaw	 Pitch	 Roll	 Temperature	 Pressure	 Altitude
43688	  0.176	 -0.057	  0.339	  0.189	 -1.315	 -10.311	  0.009	 -0.086	  1.333	 35.200	 98.833	 -99999.000
43737	  0.195	 -0.067	  0.328	 -0.309	 -0.328	 -9.782	  0.032	  0.012	  1.585	 35.200	 98.806	 -99999.000
43787	  0.208	 -0.083	  0.319	  0.270	 -1.605	 -10.133	  0.080	 -0.015	  1.987	 35.200	 98.818	 -99999.000
43837	  0.203	 -0.106	  0.305	  0.128	 -1.275	 -9.543	  0.185	  0.204	  1.867	 35.200	 98.818	 -99999.000
43887	  0.191	 -0.119	  0.303	  0.452	 -1.342	 -9.247	  0.513	  0.295	  1.831	 35.200	 98.818	 -99999.000
43937	  0.176	 -0.131	  0.296	  0.362	 -1.141	 -9.207	  0.313	  0.167	  1.627	 35.200	 98.806	 -99999.000
43987	  0.161	 -0.133	  0.294	  0.275	 -1.098	 -9.292	  0.296	  0.090	  1.712	 35.200	 98.818	 -99999.000
44037	  0.148	 -0.153	  0.295	  0.394	 -1.822	 -9.755	  0.226	  0.112	  1.446	 35.200	 98.833	 -99999.000
44087	  0.130	 -0.163	  0.293	  0.276	 -1.469	 -9.670	  0.288	  0.182	  1.440	 35.200	 98.818	 -99999.000
44137	  0.120	 -0.169	  0.292	  0.423	 -2.136	 -10.217	  0.262	  0.099	  1.447	 35.200	 98.818	 -99999.000
44187	  0.101	 -0.175	  0.297	  0.033	 -2.167	 -10.554	  0.345	  0.112	  1.396	 35.200	 98.818	 -99999.000
44237	  0.088	 -0.173	  0.300	 -0.035	 -3.115	 -10.893	  0.391	  0.335	  1.362	 35.200	 98.829	 -99999.000
44287	  0.066	 -0.173	  0.303	 -0.246	 -2.578	 -10.225	  0.077	  0.591	  1.158	 35.200	 98.829	 -99999.000
44337	  0.045	 -0.176	  0.301	  0.175	 -2.125	 -9.514	  0.142	  0.507	  1.056	 35.200	 98.818	 -99999.000
44387	  0.031	 -0.166	  0.304	  0.065	 -1.198	 -8.907	 -0.087	  0.492	  0.631	 35.200	 98.806	 -99999.000
44437	  0.014	 -0.171	  0.307	 -0.284	 -0.018	 -8.327	 -0.079	  0.467	  0.567	 35.200	 98.822	 -99999.000
44487	  0.002	 -0.164	  0.301	  0.137	  0.161	 -8.558	  0.032	  0.446	  0.630	 35.200	 98.806	 -99999.000
44537	 -0.016	 -0.160	  0.300	  0.749	 -0.566	 -9.190	  0.254	  0.425	  0.477	 35.200	 98.829	 -99999.000
44587	 -0.022	 -0.138	  0.301	  1.384	 -1.294	 -10.037	  0.200	  0.189	  0.038	 35.200	 98.818	 -99999.000
44637	 -0.022	 -0.140	  0.298	  1.243	 -1.161	 -10.437	 -0.019	 -0.140	 -0.321	 35.200	 98.833	 -99999.000
44687	 -0.013	 -0.132	  0.300	  0.860	 -0.746	 -10.828	 -0.191	 -0.525	 -0.308	 35.200	 98.818	 -99999.000
44737	  0.002	 -0.121	  0.301	  0.737	 -2.299	 -11.916	 -0.129	 -0.694	  0.125	 35.200	 98.818	 -99999.000
44787	  0.014	 -0.126	  0.300	  1.308	 -4.496	 -12.408	 -0.528	 -0.258	 -0.297	 35.200	 98.818	 -99999.000
44837	  0.016	 -0.129	  0.307	  1.090	 -1.271	 -9.900	 -0.288	  0.346	 -0.418	 35.200	 98.818	 -99999.000
44888	  0.019	 -0.124	  0.311	  3.293	 -3.095	 -9.709	  0.170	 -0.061	 -0.556	 35.200	 98.818	 -99999.000
44937	  0.031	 -0.117	  0.308	  1.911	 -2.665	 -9.756	 -0.326	 -0.553	 -0.926	 35.200	 98.818	 -99999.000
44988	  0.046	 -0.127	  0.312	  0.792	 -1.356	 -8.988	 -0.796	 -0.242	 -0.811	 35.200	 98.818	 -99999.000
45037	  0.052	 -0.138	  0.315	  0.662	 -0.639	 -8.989	 -0.851	  0.375	 -0.574	 35.200	 98.818	 -99999.000
45088	  0.046	 -0.143	  0.318	  1.350	 -0.463	 -8.402	 -0.357	  0.610	 -0.682	 35.200	 98.818	 -99999.000
45138	  0.034	 -0.134	  0.327	  3.799	 -3.163	 -10.161	  0.555	  0.682	 -0.326	 35.200	 98.829	 -99999.000
45187	  0.028	 -0.133	  0.332	  2.647	 -1.367	 -10.045	 -0.451	  0.291	 -0.531	 35.200	 98.829	 -99999.000
45237	  0.028	 -0.146	  0.328	  1.869	 -0.139	 -8.590	 -0.948	 -0.113	 -0.283	 35.200	 98.818	 -99999.000
45287	  0.035	 -0.146	  0.335	  1.797	 -0.549	 -11.394	 -0.571	 -0.485	 -0.099	 35.200	 98.818	 -99999.000
45337	  0.046	 -0.167	  0.331	  2.636	  0.362	 -10.053	 -0.628	 -0.660	 -0.275	 35.200	 98.818	 -99999.000
45387	  0.061	 -0.177	  0.327	 -1.492	  1.702	 -12.364	 -0.446	 -0.276	  0.272	 35.200	 98.818	 -99999.000
45437	  0.056	 -0.193	  0.325	  3.084	 -3.166	 -10.796	 -1.150	  0.233	 -0.189	 35.200	 98.829	 -99999.000
45488	  0.064	 -0.218	  0.319	  0.547	  0.825	 -8.748	 -1.245	 -0.657	 -0.410	 35.200	 98.829	 -99999.000
45538	  0.079	 -0.226	  0.309	 -0.276	  0.009	 -10.414	 -0.734	 -0.687	 -0.225	 35.200	 98.818	 -99999.000
45588	  0.088	 -0.249	  0.304	  0.053	  1.289	 -9.195	 -0.708	 -0.095	 -0.411	 35.200	 98.818	 -99999.000
45638	  0.094	 -0.255	  0.298	  0.915	  1.509	 -8.894	 -0.125	 -0.141	 -0.327	 35.200	 98.829	 -99999.000
45688	  0.100	 -0.244	  0.304	  0.995	  1.176	 -9.119	  0.141	 -0.182	 -0.532	 35.200	 98.829	 -99999.000
45738	  0.108	 -0.244	  0.297	  0.149	  1.707	 -9.309	  0.094	 -0.206	 -0.328	 35.200	 98.829	 -99999.000
45788	  0.112	 -0.242	  0.303	  0.023	  1.762	 -9.185	  0.010	  0.144	 -0.359	 35.200	 98.818	 -99999.000
45838	  0.113	 -0.233	  0.305	  0.090	  2.433	 -8.343	  0.223	  0.462	 -0.230	 35.200	 98.818	 -99999.000
45888	  0.107	 -0.233	  0.313	  0.495	  1.186	 -9.257	  0.516	  0.342	 -0.293	 35.200	 98.818	 -99999.000
45938	  0.104	 -0.228	  0.319	  0.427	  0.766	 -9.818	  0.101	  0.414	 -0.258	 35.200	 98.818	 -99999.000
45988	  0.097	 -0.225	  0.320	 -0.326	  2.711	 -8.787	  0.014	  0.494	 -0.349	 35.200	 98.829	 -99999.000
46038	  0.092	 -0.207	  0.329	  0.120	  1.840	 -9.726	  0.796	  0.564	 -0.133	 35.200	 98.806	 -99999.000
46088	  0.082	 -0.201	  0.335	  0.921	  0.014	 -10.383	  0.562	  0.529	 -0.363	 35.200	 98.829	 -99999.000
46138	  0.075	 -0.195	  0.339	  0.729	  1.010	 -9.434	  0.096	  0.243	 -0.623	 35.200	 98.818	 -99999.000
46188	  0.080	 -0.189	  0.342	 -0.088	  2.385	 -9.035	  0.313	 -0.147	 -0.487	 35.200	 98.818	 -99999.000
46238	  0.090	 -0.182	  0.343	  0.074	  0.199	 -10.720	  0.220	 -0.254	 -0.354	 35.200	 98.818	 -99999.000
46288	  0.090	 -0.185	  0.340	 -0.164	  0.952	 -10.078	 -0.210	  0.057	 -0.147	 35.200	 98.818	 -99999.000
46338	  0.090	 -0.188	  0.338	  0.460	  0.824	 -9.200	 -0.263	  0.080	 -0.309	 35.200	 98.818	 -99999.000
46388	  0.086	 -0.189	  0.339	  0.375	  2.015	 -8.454	 -0.020	  0.042	 -0.307	 35.200	 98.829	 -99999.000
46438	  0.091	 -0.177	  0.335	  0.632	  1.567	 -9.135	  0.022	 -0.101	 -0.206	 35.200	 98.818	 -99999.000
46488	  0.093	 -0.192	  0.336	  0.556	  1.306	 -9.850	 -0.092	 -0.190	 -0.031	 35.200	 98.829	 -99999.000
46538	  0.094	 -0.179	  0.334	  0.698	  0.858	 -10.253	 -0.218	 -0.149	  0.061	 35.200	 98.822	 -99999.000
46588	  0.098	 -0.192	  0.329	  0.741	  1.142	 -9.853	 -0.055	 -0.087	 -0.021	 35.200	 98.818	 -99999.000
46638	  0.100	 -0.187	  0.328	 -0.296	  1.028	 -10.489	  0.240	 -0.016	 -0.036	 35.200	 98.818	 -99999.000
46688	  0.097	 -0.185	  0.333	  0.460	  1.078	 -10.502	  0.172	  0.305	  0.189	 35.200	 98.818	 -99999.000
46738	  0.087	 -0.187	  0.333	  0.728	  0.189	 -10.145	  0.092	  0.149	  0.076	 35.200	 98.818	 -99999.000
46788	  0.090	 -0.181	  0.336	  0.506	 -0.189	 -10.255	  0.052	 -0.081	 -0.328	 35.200	 98.818	 -99999.000
46838	  0.090	 -0.184	  0.336	 -0.439	  1.329	 -9.350	  0.141	  0.061	 -0.249	 35.200	 98.810	 -99999.000
46888	  0.091	 -0.173	  0.338	  0.383	  0.420	 -9.529	  0.147	  0.111	 -0.205	 35.200	 98.818	 -99999.000
46938	  0.085	 -0.172	  0.339	  0.267	  1.134	 -8.858	 -0.099	  0.079	 -0.243	 35.200	 98.818	 -99999.000
46988	  0.091	 -0.169	  0.331	  0.721	  0.447	 -9.203	 -0.085	 -0.138	 -0.334	 35.200	 98.818	 -99999.000
47038	  0.091	 -0.172	  0.330	  0.396	  0.800	 -9.141	 -0.179	 -0.218	 -0.459	 35.200	 98.829	 -99999.000
47088	  0.100	 -0.172	  0.332	  0.207	  1.341	 -9.243	 -0.227	 -0.129	 -0.515	 35.200	 98.818	 -99999.000
47138	  0.103	 -0.173	  0.335	  0.322	  1.161	 -9.410	 -0.122	 -0.141	 -0.410	 35.200	 98.818	 -99999.000
47188	  0.106	 -0.169	  0.331	  0.478	  0.956	 -9.933	 -0.165	 -0.204	 -0.444	 35.200	 98.818	 -99999.000
47238	  0.113	 -0.167	  0.336	  0.024	  0.936	 -9.918	 -0.083	 -0.291	 -0.295	 35.200	 98.829	 -99999.000
47288	  0.125	 -0.165	  0.334	  0.650	 -1.075	 -10.698	 -0.232	 -0.396	 -0.323	 35.200	 98.818	 -99999.000
47338	  0.134	 -0.164	  0.331	 -0.672	  0.903	 -9.613	 -0.145	 -0.301	 -0.473	 35.200	 98.829	 -99999.000
47388	  0.138	 -0.162	  0.339	  0.063	  0.035	 -10.245	  0.073	 -0.009	 -0.259	 35.200	 98.818	 -99999.000
47438	  0.134	 -0.157	  0.340	  0.569	  0.160	 -9.605	 -0.013	  0.032	 -0.195	 35.200	 98.818	 -99999.000
47488	  0.137	 -0.150	  0.345	  0.959	 -1.076	 -10.286	  0.081	 -0.160	 -0.428	 35.200	 98.818	 -99999.000
47538	  0.146	 -0.149	  0.347	  0.057	 -0.062	 -9.880	 -0.018	 -0.119	 -0.568	 35.200	 98.818	 -99999.000
47588	  0.147	 -0.140	  0.350	  0.166	 -0.099	 -9.899	  0.131	 -0.063	 -0.467	 35.200	 98.806	 -99999.000
47637	  0.147	 -0.131	  0.354	 -0.301	  0.510	 -9.875	  0.208	  0.062	 -0.445	 35.100	 98.813	 -99999.000
47687	  0.145	 -0.127	  0.364	 -0.177	  0.708	 -9.718	  0.249	  0.280	 -0.336	 35.200	 98.818	 -99999.000
47738	  0.141	 -0.105	  0.371	  0.095	  0.422	 -9.739	  0.250	  0.228	 -0.354	 35.100	 98.813	 -99999.000
47787	  0.136	 -0.103	  0.377	 -0.222	  0.419	 -9.871	  0.278	  0.074	 -0.317	 35.100	 98.825	 -99999.000
47837	  0.133	 -0.096	  0.385	 -0.546	  0.368	 -10.210	  0.201	  0.044	 -0.335	 35.200	 98.829	 -99999.000
47888	  0.130	 -0.096	  0.390	 -0.554	  0.667	 -9.830	  0.028	  0.151	 -0.314	 35.100	 98.813	 -99999.000
47937	  0.126	 -0.098	  0.401	 -0.396	  0.896	 -9.457	  0.125	  0.045	 -0.187	 35.200	 98.818	 -99999.000
47987	  0.124	 -0.090	  0.409	 -0.172	 -0.165	 -10.200	  0.022	  0.006	 -0.226	 35.200	 98.818	 -99999.000
48037	  0.117	 -0.104	  0.415	 -0.459	  0.445	 -9.616	 -0.053	  0.102	 -0.298	 35.200	 98.818	 -99999.000
48087	  0.114	 -0.102	  0.424	 -0.224	  0.051	 -9.719	  0.053	  0.016	 -0.272	 35.100	 98.813	 -99999.000
48137	  0.111	 -0.106	  0.426	 -0.229	 -0.553	 -9.845	 -0.127	 -0.104	 -0.320	 35.200	 98.818	 -99999.000
48187	  0.113	 -0.118	  0.436	 -0.612	 -0.188	 -9.751	 -0.161	 -0.077	 -0.184	 35.200	 98.818	 -99999.000
48237	  0.111	 -0.136	  0.440	 -0.396	 -0.212	 -9.541	 -0.151	  0.100	 -0.224	 35.200	 98.818	 -99999.000
48287	  0.104	 -0.138	  0.439	 -0.036	 -0.598	 -9.478	  0.096	  0.079	 -0.229	 35.200	 98.818	 -99999.000
48337	  0.102	 -0.145	  0.453	 -0.115	 -0.428	 -9.694	  0.107	  0.010	 -0.263	 35.200	 98.818	 -99999.000
48387	  0.102	 -0.143	  0.455	  0.253	 -0.793	 -9.799	 -0.065	 -0.059	 -0.379	 35.200	 98.818	 -99999.000
48437	  0.104	 -0.153	  0.456	 -0.185	 -0.460	 -9.657	 -0.007	 -0.060	 -0.414	 35.100	 98.836	 -99999.000
48487	  0.103	 -0.152	  0.460	 -0.035	 -0.410	 -9.729	  0.096	  0.041	 -0.587	 35.200	 98.818	 -99999.000
48537	  0.103	 -0.145	  0.462	  0.004	 -0.536	 -9.827	  0.035	  0.191	 -0.642	 35.100	 98.813	 -99999.000
48587	  0.103	 -0.147	  0.465	  0.414	 -0.622	 -9.593	 -0.118	  0.062	 -0.807	 35.100	 98.813	 -99999.000
48637	  0.107	 -0.145	  0.458	 -0.191	 -0.191	 -9.808	 -0.112	  0.029	 -0.806	 35.200	 98.829	 -99999.000
48687	  0.110	 -0.142	  0.464	 -0.253	 -0.302	 -9.660	  0.015	  0.256	 -0.906	 35.100	 98.825	 -99999.000
48737	  0.104	 -0.129	  0.463	 -0.033	 -0.269	 -9.435	  0.222	  0.400	 -1.011	 35.100	 98.813	 -99999.000
48787	  0.097	 -0.112	  0.463	  0.151	 -0.457	 -9.181	  0.146	  0.258	 -1.029	 35.100	 98.825	 -99999.000
48837	  0.095	 -0.102	  0.452	 -0.192	  0.152	 -8.875	 -0.006	  0.008	 -0.878	 35.100	 98.813	 -99999.000
48887	  0.099	 -0.094	  0.459	  0.047	 -0.713	 -9.305	  0.119	 -0.138	 -0.721	 35.100	 98.813	 -99999.000
48937	  0.099	 -0.077	  0.456	 -0.007	 -0.141	 -9.593	  0.145	 -0.066	 -0.760	 35.100	 98.813	 -99999.000
48987	  0.100	 -0.061	  0.452	 -0.168	 -0.918	 -10.348	  0.159	 -0.001	 -0.627	 35.200	 98.818	 -99999.000
49037	  0.095	 -0.045	  0.448	  0.021	  0.003	 -10.119	 -0.007	  0.312	 -0.683	 35.200	 98.818	 -99999.000
49087	  0.083	 -0.041	  0.446	  0.011	  0.058	 -9.860	 -0.021	  0.273	 -0.691	 35.100	 98.825	 -99999.000
49137	  0.073	 -0.032	  0.444	 -0.294	  0.951	 -9.592	 -0.028	  0.269	 -0.797	 35.100	 98.825	 -99999.000
49187	  0.065	 -0.020	  0.437	 -0.055	  0.521	 -10.121	  0.098	  0.135	 -0.719	 35.100	 98.825	 -99999.000
49237	  0.058	 -0.012	  0.436	 -0.480	  0.405	 -10.124	  0.035	  0.046	 -0.498	 35.100	 98.813	 -99999.000
49287	  0.057	 -0.013	  0.428	 -0.395	  0.391	 -9.936	 -0.107	 -0.108	 -0.405	 35.100	 98.825	 -99999.000
49337	  0.060	 -0.006	  0.425	 -0.193	  0.349	 -9.882	 -0.024	 -0.044	 -0.420	 35.100	 98.825	 -99999.000
49387	  0.060	  0.003	  0.421	 -0.233	  0.407	 -9.602	  0.106	 -0.107	 -0.382	 35.200	 98.829	 -99999.000
49437	  0.062	 -0.001	  0.421	 -0.367	  0.422	 -9.781	  0.079	 -0.217	 -0.276	 35.100	 98.825	 -99999.000
49487	  0.065	  0.010	  0.412	 -0.345	  0.252	 -9.796	 -0.064	 -0.440	 -0.166	 35.200	 98.829	 -99999.000
49537	  0.081	  0.002	  0.412	 -1.008	  0.158	 -10.184	 -0.190	 -0.472	 -0.104	 35.100	 98.813	 -99999.000
49587	  0.086	  0.000	  0.406	 -1.164	  0.631	 -9.828	 -0.063	 -0.052	 -0.067	 35.100	 98.825	 -99999.000
49637	  0.088	  0.001	  0.411	 -0.167	  0.067	 -9.975	 -0.016	 -0.095	 -0.052	 35.100	 98.836	 -99999.000
59313	  0.250	  0.213	  0.570	 -1.687	 -0.728	 -9.766	 -0.276	  0.730	  0.619	 35.100	 98.817	  0.252
59362	  0.230	  0.197	  0.576	 -0.921	 -1.165	 -9.904	 -0.422	  0.714	  0.611	 35.100	 98.817	  0.252
59412	  0.213	  0.167	  0.576	 -0.781	 -0.500	 -9.730	 -0.647	  0.526	  0.785	 35.100	 98.821	 -0.114
59462	  0.200	  0.138	  0.580	 -0.375	 -0.383	 -9.723	 -0.301	  0.511	  0.843	 35.100	 98.828	 -0.754
59512	  0.192	  0.127	  0.581	  0.327	 -0.001	 -9.720	 -0.279	  0.106	  0.736	 35.100	 98.828	 -0.754
59562	  0.199	  0.117	  0.566	 -0.864	  0.347	 -9.443	 -0.016	 -0.333	  0.784	 35.100	 98.817	  0.252
59612	  0.217	  0.105	  0.555	 -0.866	  0.202	 -9.161	  0.110	 -0.482	  0.719	 35.100	 98.817	  0.252
59662	  0.220	  0.097	  0.540	 -1.550	 -0.464	 -9.817	  0.083	 -0.194	  0.337	 35.100	 98.821	 -0.114
59712	  0.221	  0.095	  0.533	 -1.593	  0.428	 -9.340	 -0.066	 -0.172	  0.253	 35.100	 98.817	  0.252
59762	  0.218	  0.091	  0.524	 -1.561	  0.283	 -9.804	 -0.149	 -0.131	  0.260	 35.100	 98.817	  0.252
59812	  0.220	  0.084	  0.525	 -1.395	  0.754	 -9.227	 -0.097	  0.079	  0.072	 35.100	 98.817	  0.252
59862	  0.207	  0.083	  0.526	 -1.345	  0.430	 -9.670	  0.024	  0.317	 -0.014	 35.100	 98.817	  0.252
59912	  0.193	  0.081	  0.527	 -0.843	  0.463	 -9.484	 -0.069	  0.211	 -0.053	 35.100	 98.817	  0.252
59962	  0.188	  0.079	  0.521	 -0.494	  0.621	 -9.967	  0.132	  0.057	  0.013	 35.100	 98.812	  0.709
60012	  0.185	  0.081	  0.519	 -0.516	  0.139	 -10.322	  0.003	 -0.270	  0.145	 35.100	 98.828	 -0.754
60062	  0.187	  0.087	  0.516	 -0.869	  0.394	 -10.227	 -0.034	 -0.328	  0.027	 35.100	 98.828	 -0.754
60112	  0.197	  0.083	  0.508	 -1.264	  0.628	 -9.746	  0.025	 -0.333	 -0.076	 35.100	 98.817	  0.252
60162	  0.201	  0.090	  0.499	 -1.383	  0.208	 -9.478	  0.062	 -0.332	 -0.111	 35.100	 98.805	  1.349
60212	  0.205	  0.085	  0.489	 -1.928	  0.199	 -9.479	  0.024	 -0.282	 -0.108	 35.100	 98.817	  0.252
60262	  0.210	  0.084	  0.480	 -1.803	  0.100	 -9.315	  0.022	 -0.084	 -0.015	 35.100	 98.817	  0.252
60312	  0.204	  0.083	  0.484	 -1.120	  0.729	 -8.461	  0.038	  0.212	  0.324	 35.100	 98.817	  0.252
60362	  0.199	  0.085	  0.483	 -1.868	 -0.374	 -8.922	  0.086	 -0.131	 -0.126	 35.100	 98.828	 -0.754
60412	  0.193	  0.095	  0.484	 -1.357	  0.087	 -9.156	 -0.160	  0.202	 -0.060	 35.100	 98.828	 -0.754
60462	  0.182	  0.082	  0.481	 -1.401	 -0.554	 -11.361	  0.026	  0.122	 -0.078	 35.100	 98.839	 -1.759
60512	  0.171	  0.085	  0.483	 -2.951	  1.875	 -15.559	  0.186	  0.461	 -0.112	 35.100	 98.817	  0.252
60562	  0.168	  0.099	  0.473	  0.494	  0.232	 -13.195	  0.452	 -0.099	 -0.049	 35.100	 98.824	 -0.388
60612	  0.189	  0.105	  0.447	  1.750	 -0.224	 -4.793	  0.435	 -1.219	  0.056	 35.100	 98.817	  0.252
60662	  0.226	  0.106	  0.422	  0.405	 -1.628	  1.062	 -0.579	 -1.630	 -0.171	 35.100	 98.828	 -0.754
60712	  0.227	  0.083	  0.419	 -3.802	 -0.740	 -1.977	 -1.178	 -0.219	 -0.484	 35.100	 98.817	  0.252
60762	  0.189	  0.060	  0.449	 -5.652	  3.245	 -9.257	 -0.638	  2.029	 -0.027	 35.100	 98.817	  0.252
60812	  0.112	  0.061	  0.491	 -3.102	  2.631	 -17.226	 -0.048	  2.383	  0.290	 35.100	 98.812	  0.709
60862	  0.072	  0.048	  0.499	  1.269	  1.875	 -21.136	 -0.121	  0.196	  0.391	 35.100	 98.817	  0.252
60912	  0.118	  0.059	  0.487	  0.439	 -0.937	 -12.791	  0.550	 -1.845	 -0.067	 35.100	 98.817	  0.252
60962	  0.163	  0.071	  0.460	 -0.918	 -0.314	 -2.548	  0.060	 -1.322	 -0.305	 35.100	 98.828	 -0.754
61012	  0.180	  0.065	  0.448	  0.488	  0.113	  2.039	  0.178	 -0.172	 -0.132	 35.100	 98.817	  0.252
61062	  0.160	  0.061	  0.458	 -1.264	  0.969	 -5.685	 -0.419	  1.203	  0.389	 35.100	 98.817	  0.252
61112	  0.103	  0.047	  0.482	 -2.243	  1.184	 -14.895	 -0.141	  1.717	  0.269	 35.100	 98.824	 -0.388
61162	  0.062	  0.041	  0.491	 -1.276	 -0.052	 -19.311	 -0.244	  0.638	 -0.124	 35.100	 98.817	  0.252
61212	  0.071	  0.034	  0.491	 -0.410	  2.331	 -14.721	  0.063	 -0.820	  0.123	 35.100	 98.824	 -0.388
61262	  0.114	  0.043	  0.472	  0.967	  0.332	 -6.819	  0.481	 -1.691	  0.104	 35.100	 98.817	  0.252
61312	  0.158	  0.048	  0.453	 -1.319	  1.529	 -1.633	  0.216	 -1.092	  0.279	 35.100	 98.824	 -0.388
61362	  0.168	  0.047	  0.451	 -2.886	 -0.871	 -4.168	 -0.112	  0.218	  0.285	 35.100	 98.812	  0.709
61412	  0.131	  0.042	  0.470	 -3.493	  2.340	 -13.949	  0.144	  1.962	 -0.315	 35.100	 98.812	  0.709
61462	  0.087	  0.053	  0.479	 -0.588	 -0.695	 -19.461	  0.211	  0.235	 -0.179	 35.100	 98.828	 -0.754
61512	  0.134	  0.060	  0.461	 -0.482	  0.983	 -12.030	  0.094	 -1.963	  0.671	 35.100	 98.824	 -0.388
61562	  0.176	  0.068	  0.442	 -0.951	  0.843	 -6.554	  0.454	 -0.327	 -0.186	 35.100	 98.812	  0.709
61612	  0.176	  0.080	  0.434	  0.910	  1.688	 -3.777	  0.139	 -0.057	  0.167	 35.100	 98.828	 -0.754
61663	  0.183	  0.069	  0.430	 -0.709	 -1.155	 -1.550	 -0.130	 -0.356	  0.132	 35.100	 98.828	 -0.754
61712	  0.160	  0.063	  0.441	 -8.423	 -2.218	 -13.964	 -0.539	  1.755	 -0.221	 35.100	 98.828	 -0.754
61763	  0.090	  0.052	  0.466	  4.550	  1.520	 -21.298	  0.049	  1.706	  0.155	 35.100	 98.828	 -0.754
61813	  0.131	  0.067	  0.450	  0.627	  0.587	 -1.152	  0.837	 -2.931	  0.600	 35.100	 98.828	 -0.754
61862	  0.174	  0.066	  0.430	 -7.663	  0.485	 -5.131	 -0.750	  0.573	 -0.090	 35.100	 98.828	 -0.754
61912	  0.116	  0.049	  0.460	  4.148	  4.053	 -17.416	 -0.050	  2.399	 -0.200	 35.100	 98.828	 -0.754
61963	  0.145	  0.048	  0.449	 -1.433	 -0.230	 -1.010	 -0.099	 -3.807	  0.579	 35.100	 98.824	 -0.388
62013	  0.159	  0.045	  0.441	 -4.311	  1.705	 -15.830	 -0.583	  2.694	 -0.586	 35.100	 98.828	 -0.754
62063	  0.159	  0.037	  0.438	  2.368	 -1.136	  2.183	  0.380	 -3.151	  0.847	 35.100	 98.824	 -0.388
62113	  0.141	  0.053	  0.451	 -3.643	  2.092	 -20.295	 -0.192	  4.082	 -1.188	 35.100	 98.828	 -0.754
62163	  0.120	  0.047	  0.453	  5.458	 -0.355	  2.289	 -0.065	 -3.329	  1.045	 35.100	 98.828	 -0.754
62213	  0.139	  0.059	  0.448	 -3.931	 -3.599	 -19.710	  0.237	  3.370	 -1.131	 35.100	 98.817	  0.252
62263	  0.118	  0.046	  0.459	 -0.190	  6.721	 -5.628	  0.047	 -1.760	  1.115	 35.100	 98.824	 -0.388
62313	  0.124	  0.071	  0.445	 -1.257	 -4.365	 -8.983	 -0.069	  0.349	 -0.781	 35.100	 98.817	  0.252
62363	  0.130	  0.056	  0.449	 -2.024	  2.676	 -11.346	  0.416	  0.292	  0.221	 35.100	 98.824	 -0.388
62413	  0.116	  0.075	  0.446	 -0.142	 -1.621	 -9.761	  0.066	  0.754	 -0.142	 35.100	 98.828	 -0.754
62463	  0.123	  0.068	  0.448	 -0.614	  0.836	 -6.732	  0.097	 -1.027	  0.627	 35.100	 98.828	 -0.754
62513	  0.145	  0.072	  0.448	 -1.480	 -1.496	 -8.951	 -0.245	  0.013	  0.008	 35.100	 98.824	 -0.388
62563	  0.132	  0.062	  0.453	 -1.261	  0.271	 -9.087	 -0.390	  0.206	 -0.180	 35.100	 98.824	 -0.388
62613	  0.130	  0.052	  0.454	 -1.887	  0.547	 -11.279	 -0.059	  0.203	 -0.126	 35.100	 98.824	 -0.388
62663	  0.117	  0.053	  0.464	 -2.200	  2.255	 -16.761	 -0.003	  1.170	  0.231	 35.100	 98.812	  0.709
62713	  0.113	  0.063	  0.457	  4.609	 -4.574	 -0.928	  0.451	 -1.547	  0.130	 35.100	 98.828	 -0.754
62763	  0.189	  0.064	  0.434	 -13.394	 -4.787	 -10.424	 -0.636	 -0.488	  0.006	 35.100	 98.839	 -1.759
62813	  0.082	  0.043	  0.479	  3.882	  5.681	 -18.600	 -0.561	  4.757	 -0.597	 35.100	 98.817	  0.252
62863	  0.054	  0.034	  0.482	  7.174	  1.783	 -3.228	  0.219	 -2.514	  0.262	 35.100	 98.828	 -0.754
62913	  0.110	  0.053	  0.462	 -7.077	 -5.268	 -17.282	  0.052	 -0.215	  0.090	 35.100	 98.812	  0.709
62963	  0.120	  0.037	  0.469	 -2.409	  5.231	 -6.228	  0.433	 -0.588	  0.771	 35.100	 98.824	 -0.388
63013	  0.098	  0.050	  0.461	  4.578	 -3.350	 -6.706	 -0.981	  0.177	 -1.367	 35.100	 98.828	 -0.754
63063	  0.163	  0.023	  0.458	 -8.565	  7.874	 -7.961	  1.190	 -1.583	  1.144	 35.100	 98.812	  0.709
63113	  0.086	  0.069	  0.467	  9.660	 -1.519	 -11.996	  1.126	  3.718	 -2.102	 35.100	 98.824	 -0.388
63163	  0.098	  0.082	  0.462	 -2.968	  2.804	  1.704	  0.915	 -4.551	  1.757	 35.100	 98.824	 -0.388
63213	  0.136	  0.097	  0.443	 -3.555	 -3.221	 -23.413	 -0.921	  2.846	 -1.249	 35.100	 98.824	 -0.388
63263	  0.101	  0.065	  0.455	  4.139	  1.961	  0.983	 -0.756	 -1.969	  0.798	 35.100	 98.824	 -0.388
63313	  0.178	  0.059	  0.437	 -14.038	  0.050	 -16.385	  0.227	 -0.802	  0.178	 35.100	 98.812	  0.709
63363	  0.154	  0.059	  0.445	  4.404	 -0.350	 -0.875	 -0.036	  0.225	 -0.402	 35.100	 98.824	 -0.388
63413	  0.163	  0.063	  0.442	 -7.125	 -1.968	 -16.204	 -0.109	  0.545	 -0.111	 35.100	 98.824	 -0.388
63463	  0.145	  0.047	  0.454	  0.730	  1.335	 -8.726	 -0.323	  0.408	 -0.099	 35.100	 98.812	  0.709
63513	  0.148	  0.041	  0.452	 -1.990	  0.975	 -8.412	 -0.309	 -0.235	 -0.134	 35.100	 98.828	 -0.754
63563	  0.146	  0.041	  0.456	 -1.476	  0.285	 -9.538	 -0.195	  0.268	 -0.251	 35.100	 98.824	 -0.388
63613	  0.136	  0.030	  0.456	 -2.127	  1.517	 -9.269	 -0.256	  0.386	 -0.057	 35.100	 98.817	  0.252
63663	  0.129	  0.024	  0.458	 -0.987	  1.277	 -9.588	 -0.259	  0.172	  0.168	 35.100	 98.828	 -0.754
63713	  0.132	  0.018	  0.467	 -1.108	  1.301	 -9.575	 -0.068	  0.090	  0.093	 35.100	 98.824	 -0.388
63763	  0.127	  0.017	  0.463	 -0.819	  0.883	 -9.367	  0.058	  0.176	  0.023	 35.100	 98.828	 -0.754
63813	  0.124	  0.024	  0.464	 -1.023	  1.253	 -8.693	  0.072	  0.106	 -0.001	 35.100	 98.824	 -0.388
63863	  0.122	  0.030	  0.462	 -0.740	  0.742	 -9.161	  0.365	  0.205	 -0.014	 35.100	 98.824	 -0.388
63913	  0.115	  0.034	  0.462	 -0.697	 -0.857	 -10.998	 -0.077	  0.126	  0.076	 35.100	 98.824	 -0.388
63963	  0.113	  0.036	  0.469	 -0.718	  0.926	 -11.369	 -0.177	  0.059	 -0.036	 35.100	 98.824	 -0.388
64013	  0.108	  0.033	  0.468	 -0.714	  1.398	 -15.599	  0.124	  0.420	  0.079	 35.100	 98.839	 -1.759
64063	  0.109	  0.034	  0.452	  2.085	  1.949	 -10.315	  0.281	 -0.318	 -0.058	 35.100	 98.824	 -0.388
64113	  0.141	  0.054	  0.431	  3.131	 -4.496	  3.881	  0.638	 -2.576	  0.368	 35.100	 98.817	  0.252
64163	  0.193	  0.044	  0.422	 -6.918	 -1.863	 -0.112	 -0.662	  0.147	 -0.023	 35.100	 98.824	 -0.388
64213	  0.103	  0.038	  0.463	 -2.432	  3.706	 -15.049	 -0.160	  4.787	 -0.591	 35.100	 98.824	 -0.388
64263	 -0.038	  0.029	  0.482	 13.496	  4.146	 -32.775	 -0.734	  2.992	 -0.704	 35.100	 98.824	 -0.388
64313	  0.021	  0.056	  0.461	  4.480	 -6.702	  5.559	  1.779	 -5.561	  1.596	 35.100	 98.828	 -0.754
64363	  0.164	  0.036	  0.429	 -6.980	 -0.974	  3.670	 -2.287	 -2.856	 -0.026	 35.100	 98.824	 -0.388
64413	  0.111	  0.017	  0.457	 -12.947	  7.896	 -16.782	  1.272	  5.473	  0.331	 35.100	 98.835	 -1.394
64462	 -0.025	  0.028	  0.473	 16.666	 -4.110	 -21.364	 -1.181	  1.844	  0.215	 35.100	 98.824	 -0.388
64513	  0.107	  0.026	  0.452	  5.740	 -10.358	  8.477	  0.400	 -7.375	  1.667	 35.100	 98.817	  0.252
64563	  0.197	  0.007	  0.424	 -23.123	  8.024	 -5.493	 -0.236	  2.649	 -0.047	 35.100	 98.824	 -0.388
64612	  0.031	  0.023	  0.470	  2.611	  2.667	 -25.404	 -0.313	  5.233	 -1.246	 35.100	 98.824	 -0.388
64662	  0.043	  0.060	  0.462	  5.915	 -5.861	 -3.645	  1.884	 -3.210	  1.337	 35.100	 98.812	  0.709
64712	  0.159	  0.048	  0.434	  4.650	 -2.018	  6.681	 -1.885	 -4.103	  0.189	 35.100	 98.812	  0.709
64762	  0.129	  0.029	  0.442	 -12.878	  6.751	 -29.108	  0.301	  6.537	 -1.039	 35.100	 98.835	 -1.394
64812	  0.018	  0.053	  0.466	  6.450	  2.319	 -11.128	  2.104	 -0.100	  0.224	 35.100	 98.831	 -1.029
64862	  0.116	  0.097	  0.431	  5.660	 -4.901	  2.095	  0.193	 -4.287	  1.256	 35.100	 98.824	 -0.388
64912	  0.177	  0.075	  0.414	 -6.858	  4.210	 -6.011	 -0.788	  0.286	 -0.301	 35.100	 98.824	 -0.388
64962	  0.126	  0.073	  0.435	 -3.130	  2.118	 -10.936	  0.096	  2.433	 -0.538	 35.100	 98.824	 -0.388
65012	  0.082	  0.076	  0.446	  1.354	 -0.621	 -11.670	  0.191	  0.616	  0.061	 35.100	 98.824	 -0.388
65062	  0.095	  0.077	  0.444	 -0.132	 -0.739	 -10.170	 -0.379	 -0.893	  0.131	 35.100	 98.835	 -1.394
65112	  0.118	  0.063	  0.446	 -2.226	  1.334	 -9.488	 -0.332	 -0.612	  0.035	 35.100	 98.820	 -0.023
65162	  0.130	  0.065	  0.445	 -1.894	  0.588	 -10.018	  0.039	  0.021	 -0.281	 35.100	 98.824	 -0.388
65212	  0.127	  0.073	  0.447	 -1.561	  0.359	 -9.640	  0.227	  0.157	 -0.319	 35.100	 98.824	 -0.388
65262	  0.131	  0.075	  0.443	 -1.604	  0.299	 -9.703	  0.015	  0.315	 -0.293	 35.100	 98.812	  0.709
65312	  0.127	  0.075	  0.461	 -0.431	  0.831	 -8.988	 -0.298	  0.224	 -0.388	 35.100	 98.820	 -0.023
65362	  0.136	  0.070	  0.473	 -0.736	  1.043	 -9.042	 -0.243	 -0.030	 -0.511	 35.100	 98.812	  0.709
65412	  0.137	  0.068	  0.472	 -0.504	  0.634	 -9.702	 -0.233	  0.016	 -0.718	 35.100	 98.824	 -0.388
65462	  0.147	  0.073	  0.488	 -0.953	  1.192	 -9.496	 -0.053	 -0.352	 -0.892	 35.100	 98.824	 -0.388
65512	  0.161	  0.090	  0.492	 -1.312	  0.706	 -10.367	  0.149	 -0.382	 -0.841	 35.100	 98.824	 -0.388
65562	  0.177	  0.103	  0.500	 -1.827	  0.396	 -10.360	  0.139	  0.104	 -0.978	 35.100	 98.820	 -0.023
65612	  0.176	  0.119	  0.513	 -1.202	  0.171	 -9.191	  0.156	  0.248	 -0.962	 35.100	 98.824	 -0.388
65662	  0.186	  0.151	  0.529	 -0.856	  0.124	 -8.967	  0.390	  0.057	 -0.613	 35.100	 98.824	 -0.388
65712	  0.200	  0.167	  0.546	 -0.573	 -0.986	 -9.164	  0.415	 -0.066	 -0.504	 35.100	 98.824	 -0.388
65762	  0.210	  0.188	  0.567	  0.146	 -1.270	 -9.038	  0.046	  0.049	 -0.563	 35.100	 98.835	 -1.394
65812	  0.212	  0.192	  0.604	  0.685	 -1.161	 -8.729	 -0.358	  0.191	 -0.621	 35.100	 98.824	 -0.388
65862	  0.196	  0.193	  0.639	  0.511	 -0.216	 -8.262	 -0.015	 -0.013	 -0.245	 35.100	 98.824	 -0.388
65912	  0.193	  0.206	  0.656	  0.319	 -0.179	 -8.282	  1.177	 -0.358	  0.228	 35.100	 98.835	 -1.394
65962	  0.181	  0.259	  0.643	  0.864	 -3.127	 -13.320	  1.366	  0.269	 -0.114	 35.100	 98.831	 -1.029
66012	  0.149	  0.268	  0.647	  1.096	 -0.564	 -8.360	  0.161	  0.251	 -0.353	 35.100	 98.824	 -0.388
66062	  0.132	  0.279	  0.644	  1.072	 -2.633	 -10.745	  0.419	 -0.019	 -0.047	 35.100	 98.820	 -0.023
66112	  0.109	  0.278	  0.653	  0.511	 -2.386	 -10.103	 -0.303	  0.423	 -0.350	 35.100	 98.820	 -0.023
66162	  0.095	  0.263	  0.655	  0.618	 -1.474	 -9.667	 -0.438	  0.001	 -0.107	 35.100	 98.824	 -0.388
66212	  0.090	  0.244	  0.662	  0.450	 -1.193	 -9.128	 -0.441	  0.063	 -0.090	 35.100	 98.824	 -0.388
66262	  0.091	  0.229	  0.665	 -0.159	 -0.504	 -9.418	 -0.035	 -0.251	  0.294	 35.100	 98.820	 -0.023
66312	  0.087	  0.252	  0.651	 -1.599	 -2.504	 -9.995	  1.459	  0.413	  0.193	 35.100	 98.824	 -0.388
66362	  0.085	  0.287	  0.625	  0.702	 -1.983	 -8.208	  1.304	  0.107	  0.752	 35.100	 98.824	 -0.388
66412	  0.090	  0.327	  0.594	  1.215	 -4.096	 -9.413	  1.305	 -0.027	  0.357	 35.100	 98.824	 -0.388
66462	  0.091	  0.347	  0.573	  0.026	 -5.489	 -11.658	 -0.081	  0.224	 -0.325	 35.100	 98.835	 -1.394
66512	  0.075	  0.352	  0.568	 -0.209	 -4.008	 -10.330	  0.029	  0.201	 -0.206	 35.100	 98.820	 -0.023
66562	  0.071	  0.355	  0.564	 -0.612	 -2.612	 -8.907	  0.231	 -0.031	  0.195	 35.100	 98.820	 -0.023
66612	  0.076	  0.363	  0.564	 -0.209	 -3.730	 -10.534	  0.111	  0.295	  0.174	 35.100	 98.824	 -0.388
66662	  0.047	  0.357	  0.572	  1.320	 -3.549	 -9.077	 -0.403	  0.865	 -0.514	 35.100	 98.835	 -1.394
66712	  0.012	  0.349	  0.582	  0.805	 -3.374	 -8.248	 -0.309	  0.403	 -0.615	 35.100	 98.835	 -1.394
66762	  0.005	  0.350	  0.585	 -0.017	 -2.664	 -9.061	  0.104	 -0.040	  0.078	 35.100	 98.820	 -0.023
66812	  0.000	  0.350	  0.580	  0.795	 -3.808	 -9.329	  0.136	  0.197	 -0.370	 35.100	 98.835	 -1.394
66862	 -0.020	  0.354	  0.575	  1.719	 -3.547	 -9.018	  0.263	  0.262	 -0.505	 35.100	 98.831	 -1.029
66912	 -0.032	  0.365	  0.569	  1.524	 -2.754	 -8.873	  0.407	 -0.151	 -0.256	 35.100	 98.831	 -1.029
66962	 -0.034	  0.379	  0.554	  1.940	 -3.123	 -8.985	  0.519	 -0.192	 -0.470	 35.100	 98.842	 -2.034
67012	 -0.034	  0.394	  0.536	  0.752	 -3.658	 -9.308	  0.427	 -0.329	 -0.429	 35.100	 98.835	 -1.394
67062	 -0.032	  0.403	  0.537	  0.307	 -4.974	 -10.175	 -0.158	 -0.013	 -0.050	 35.100	 98.835	 -1.394
67112	 -0.040	  0.385	  0.552	  0.207	 -3.887	 -9.061	 -0.525	  0.293	 -0.007	 35.100	 98.835	 -1.394
67162	 -0.043	  0.370	  0.557	  0.716	 -3.400	 -8.565	 -0.395	  0.180	  0.485	 35.100	 98.835	 -1.394
67212	 -0.041	  0.358	  0.567	  1.399	 -3.162	 -9.037	 -0.264	  0.512	  0.514	 35.100	 98.835	 -1.394
67262	 -0.047	  0.359	  0.572	  2.088	 -4.038	 -8.854	 -0.016	 -0.133	  0.197	 35.100	 98.824	 -0.388
67312	 -0.049	  0.355	  0.571	  1.136	 -3.356	 -9.682	 -0.192	  0.171	 -0.066	 35.100	 98.824	 -0.388
67362	 -0.051	  0.347	  0.578	  1.982	 -2.296	 -8.787	 -0.242	  0.063	  0.085	 35.100	 98.831	 -1.029
67412	 -0.047	  0.341	  0.579	  1.289	 -2.599	 -8.722	  0.013	  0.004	  0.329	 35.100	 98.835	 -1.394
67463	 -0.037	  0.349	  0.581	  1.567	 -3.943	 -9.493	  0.172	 -0.051	  0.226	 35.100	 98.835	 -1.394
67512	 -0.038	  0.344	  0.581	  1.899	 -4.753	 -10.832	 -0.487	  0.047	 -0.158	 35.100	 98.820	 -0.023
67563	 -0.053	  0.325	  0.597	  2.057	 -0.835	 -7.377	 -0.515	  0.028	 -0.601	 35.100	 98.831	 -1.029
67612	 -0.056	  0.313	  0.604	  2.081	 -2.865	 -8.130	 -0.516	 -0.023	 -0.238	 35.100	 98.835	 -1.394
67663	 -0.047	  0.295	  0.613	 -0.491	 -1.002	 -8.587	 -0.090	 -0.593	 -0.570	 35.100	 98.835	 -1.394
67713	 -0.028	  0.306	  0.613	  0.305	 -1.835	 -8.524	  0.055	 -0.501	  0.896	 35.100	 98.824	 -0.388
67762	  0.017	  0.298	  0.610	  1.928	 -6.137	 -9.708	 -0.214	 -1.033	  0.041	 35.100	 98.831	 -1.029
67813	  0.050	  0.268	  0.623	  0.278	 -0.350	 -10.630	 -1.123	 -0.873	  0.259	 35.100	 98.824	 -0.388
67863	  0.080	  0.236	  0.632	 -0.235	 -2.029	 -9.552	 -0.648	 -0.576	  0.236	 35.100	 98.820	 -0.023
67913	  0.085	  0.224	  0.641	 -0.747	 -0.975	 -8.455	 -0.440	 -0.086	 -0.357	 35.100	 98.831	 -1.029
67963	  0.062	  0.211	  0.644	 -2.466	 -0.307	 -9.570	 -0.020	  1.007	 -0.237	 35.100	 98.824	 -0.388
68013	  0.031	  0.211	  0.653	 -0.226	 -1.333	 -9.311	 -0.086	  0.682	  0.329	 35.100	 98.835	 -1.394
68063	  0.017	  0.206	  0.646	  1.925	 -1.372	 -9.432	 -0.120	  0.277	  0.142	 35.100	 98.847	 -2.491
68113	  0.006	  0.203	  0.650	  0.483	 -0.757	 -9.617	 -0.153	  0.277	  0.135	 35.100	 98.835	 -1.394
68163	 -0.004	  0.207	  0.646	  0.525	 -2.534	 -10.961	  0.186	  0.512	 -0.070	 35.100	 98.835	 -1.394
68213	 -0.019	  0.203	  0.651	 -0.228	 -0.630	 -10.940	 -0.207	  0.103	 -0.204	 35.100	 98.831	 -1.029
68263	 -0.023	  0.197	  0.653	  0.518	 -0.823	 -8.903	 -0.180	 -0.010	  0.126	 35.100	 98.831	 -1.029
68313	 -0.027	  0.191	  0.652	  1.148	 -1.143	 -9.274	 -0.204	  0.289	  0.252	 35.100	 98.831	 -1.029
68363	 -0.034	  0.187	  0.656	  0.883	 -1.275	 -11.437	  0.015	  0.209	  0.355	 35.100	 98.812	  0.709
68413	 -0.029	  0.178	  0.661	  1.344	 -0.373	 -8.985	 -0.562	 -0.082	  0.373	 35.100	 98.835	 -1.394
68463	 -0.023	  0.164	  0.663	  1.496	 -1.036	 -9.301	 -0.298	 -0.072	  0.170	 35.100	 98.820	 -0.023
68513	 -0.023	  0.152	  0.667	  1.066	 -0.410	 -9.545	 -0.394	  0.157	  0.232	 35.100	 98.831	 -1.029
68563	 -0.028	  0.136	  0.674	  1.517	 -0.405	 -9.850	 -0.364	  0.177	  0.179	 35.100	 98.835	 -1.394
68613	 -0.032	  0.127	  0.674	  1.124	 -0.866	 -10.278	 -0.338	  0.427	  0.535	 35.100	 98.831	 -1.029
68663	 -0.044	  0.114	  0.681	  1.942	 -0.234	 -9.028	 -0.344	  0.258	  0.457	 35.100	 98.847	 -2.491
68713	 -0.042	  0.109	  0.677	  2.436	 -0.499	 -9.316	 -0.123	 -0.244	  0.500	 35.100	 98.831	 -1.029
68763	 -0.022	  0.110	  0.680	  0.053	 -0.019	 -11.216	 -0.064	 -0.143	  0.260	 35.100	 98.842	 -2.034
68813	 -0.036	  0.104	  0.680	  1.134	  1.096	 -8.524	 -0.348	  0.451	 -0.090	 35.100	 98.831	 -1.029
68863	 -0.048	  0.093	  0.684	  1.507	  0.387	 -9.734	 -0.311	  0.291	  0.103	 35.100	 98.831	 -1.029
68913	 -0.053	  0.084	  0.681	  2.135	  1.288	 -9.196	 -0.279	  0.003	  0.002	 35.100	 98.831	 -1.029
68963	 -0.051	  0.076	  0.683	  1.818	  0.692	 -9.448	 -0.135	 -0.030	  0.265	 35.100	 98.820	 -0.023
69013	 -0.047	  0.072	  0.686	  2.240	  0.453	 -9.567	 -0.319	 -0.092	 -0.045	 35.100	 98.820	 -0.023
69063	 -0.046	  0.067	  0.685	  1.364	  1.408	 -9.373	  0.319	  0.013	  0.177	 35.100	 98.831	 -1.029
69113	 -0.042	  0.075	  0.685	  2.193	 -0.654	 -10.035	 -0.139	 -0.159	  0.080	 35.100	 98.824	 -0.388
69163	 -0.035	  0.061	  0.692	  0.691	  0.497	 -9.880	 -0.737	 -0.131	 -0.165	 35.100	 98.831	 -1.029
69213	 -0.038	  0.033	  0.691	  1.477	  1.649	 -9.247	 -0.683	  0.079	 -0.219	 35.100	 98.842	 -2.034
69263	 -0.050	  0.019	  0.689	  0.718	  2.346	 -9.360	 -0.302	  0.250	 -0.308	 35.100	 98.831	 -1.029
69313	 -0.053	  0.018	  0.691	  1.541	  1.634	 -8.936	  0.251	  0.091	  0.061	 35.100	 98.842	 -2.034
69363	 -0.056	  0.023	  0.688	  1.275	  0.956	 -10.057	  0.068	 -0.018	  0.147	 35.100	 98.831	 -1.029
69413	 -0.054	  0.021	  0.693	  1.491	  1.238	 -9.571	 -0.012	  0.015	  0.011	 35.100	 98.820	 -0.023
69463	 -0.057	  0.027	  0.695	  1.835	  1.458	 -9.343	  0.031	  0.002	  0.025	 35.100	 98.831	 -1.029
69513	 -0.053	  0.025	  0.696	  1.498	  1.608	 -9.433	  0.124	 -0.000	  0.088	 35.100	 98.831	 -1.029
69563	 -0.052	  0.032	  0.689	  1.711	  1.365	 -9.397	  0.247	  0.000	  0.175	 35.100	 98.831	 -1.029
69613	 -0.052	  0.044	  0.683	  1.719	  0.971	 -9.564	  0.298	 -0.001	  0.205	 35.100	 98.838	 -1.668
69663	 -0.047	  0.057	  0.686	  1.783	  0.628	 -9.648	  0.218	 -0.001	  0.158	 35.100	 98.816	  0.343
69713	 -0.049	  0.056	  0.685	  1.871	  0.590	 -9.659	 -0.092	  0.015	 -0.060	 35.100	 98.820	 -0.023
69763	 -0.048	  0.052	  0.685	  1.624	  1.217	 -9.447	 -0.009	 -0.004	 -0.004	 35.100	 98.831	 -1.029
69813	 -0.052	  0.054	  0.690	  1.674	  0.843	 -9.598	  0.009	  0.003	  0.019	 35.100	 98.831	 -1.029
69863	 -0.047	  0.054	  0.687	  1.668	  0.834	 -9.595	  0.015	 -0.002	  0.023	 35.100	 98.831	 -1.029
69912	 -0.050	  0.060	  0.686	  1.694	  0.867	 -9.542	 -0.001	  0.002	  0.010	 35.100	 98.820	 -0.023
69962	 -0.047	  0.057	  0.689	  1.774	  0.906	 -9.526	 -0.002	  0.000	  0.003	 35.100	 98.831	 -1.029
70012	 -0.051	  0.053	  0.684	  1.681	  0.842	 -9.569	 -0.043	  0.004	 -0.025	 35.100	 98.831	 -1.029
70063	 -0.049	  0.055	  0.691	  1.731	  1.075	 -9.479	  0.025	  0.004	  0.028	 35.100	 98.842	 -2.034
70113	 -0.051	  0.054	  0.689	  1.735	  0.931	 -9.484	 -0.008	  0.006	  0.002	 35.100	 98.816	  0.343
70163	 -0.048	  0.054	  0.690	  1.695	  0.851	 -9.618	 -0.005	  0.003	  0.005	 35.100	 98.835	 -1.394
70213	 -0.049	  0.053	  0.682	  1.687	  0.871	 -9.594	 -0.003	  0.004	  0.006	 35.100	 98.831	 -1.029
70262	 -0.048	  0.054	  0.681	  1.713	  0.874	 -9.563	 -0.001	  0.002	  0.005	 35.100	 98.831	 -1.029
70312	 -0.049	  0.053	  0.692	  1.689	  0.880	 -9.525	 -0.003	  0.003	  0.004	 35.100	 98.827	 -0.662
70362	 -0.049	  0.053	  0.684	  1.729	  0.868	 -9.547	 -0.002	  0.003	  0.004	 35.100	 98.842	 -2.034
70412	 -0.049	  0.054	  0.691	  1.693	  0.873	 -9.558	 -0.003	  0.002	  0.003	 35.100	 98.838	 -1.668
70462	 -0.049	  0.054	  0.686	  1.700	  0.887	 -9.542	 -0.004	  0.002	  0.003	 35.100	 98.820	 -0.023
70512	 -0.047	  0.056	  0.687	  1.681	  0.869	 -9.592	 -0.004	  0.000	  0.004	 35.100	 98.827	 -0.662
70562	 -0.047	  0.056	  0.690	  1.710	  0.854	 -9.530	 -0.003	  0.002	  0.005	 35.100	 98.831	 -1.029
70612	 -0.047	  0.055	  0.691	  2.021	  0.784	 -9.582	 -0.003	  0.005	 -0.000	 35.100	 98.827	 -0.662
70662	 -0.047	  0.055	  0.688	  1.718	  0.909	 -9.469	 -0.003	  0.000	  0.002	 35.100	 98.820	 -0.023
70712	 -0.051	  0.054	  0.687	  1.690	  0.848	 -9.556	  0.001	  0.001	  0.004	 35.100	 98.820	 -0.023
70762	 -0.045	  0.054	  0.684	  1.674	  0.904	 -9.394	  0.006	  0.002	 -0.001	 35.100	 98.827	 -0.662
70812	 -0.049	  0.056	  0.684	  2.149	  0.808	 -9.737	  0.016	 -0.028	  0.005	 35.100	 98.831	 -1.029
70862	 -0.049	  0.052	  0.685	  1.428	  1.088	 -10.072	  0.006	 -0.007	  0.004	 35.100	 98.820	 -0.023
70912	 -0.048	  0.052	  0.685	  1.883	  1.024	 -9.327	 -0.028	  0.006	 -0.029	 35.100	 98.831	 -1.029
70962	 -0.049	  0.054	  0.692	  1.627	  1.039	 -9.480	 -0.005	  0.004	 -0.015	 35.100	 98.842	 -2.034
71012	 -0.049	  0.055	  0.683	  1.861	  0.755	 -9.468	  0.007	 -0.011	  0.003	 35.100	 98.831	 -1.029
71062	 -0.047	  0.056	  0.689	  1.811	  0.821	 -9.554	 -0.010	  0.006	 -0.000	 35.100	 98.831	 -1.029
71112	 -0.049	  0.062	  0.691	  1.793	  0.816	 -9.521	 -0.007	 -0.000	 -0.002	 35.100	 98.820	 -0.023
71162	 -0.047	  0.061	  0.685	  1.678	  0.718	 -9.633	 -0.002	 -0.000	  0.009	 35.100	 98.842	 -2.034
71212	 -0.050	  0.060	  0.686	  1.889	  0.836	 -9.466	 -0.003	  0.003	 -0.007	 35.100	 98.831	 -1.029
71262	 -0.047	  0.054	  0.690	  1.778	  0.931	 -9.513	 -0.009	  0.001	 -0.001	 35.100	 98.831	 -1.029
71312	 -0.048	  0.053	  0.685	  1.684	  0.861	 -9.578	 -0.007	  0.003	  0.004	 35.100	 98.820	 -0.023
71362	 -0.049	  0.054	  0.685	  1.684	  0.806	 -9.578	 -0.005	  0.003	  0.003	 35.100	 98.816	  0.343
71412	 -0.047	  0.062	  0.691	  1.720	  0.803	 -9.530	 -0.005	  0.006	  0.002	 35.100	 98.831	 -1.029
71462	 -0.046	  0.065	  0.691	  1.665	  0.851	 -9.573	 -0.003	  0.001	  0.007	 35.100	 98.820	 -0.023
71512	 -0.045	  0.054	  0.687	  1.711	  0.862	 -9.547	 -0.001	  0.000	  0.004	 35.100	 98.831	 -1.029
71562	 -0.049	  0.054	  0.686	  1.691	  0.862	 -9.575	 -0.006	  0.004	  0.003	 35.100	 98.831	 -1.029
71612	 -0.047	  0.057	  0.689	  1.711	  0.853	 -9.542	 -0.004	  0.005	  0.004	 35.100	 98.831	 -1.029
71662	 -0.049	  0.058	  0.690	  1.698	  0.894	 -9.541	 -0.002	  0.000	  0.004	 35.100	 98.831	 -1.029
71712	 -0.049	  0.056	  0.688	  1.673	  0.837	 -9.537	 -0.008	  0.004	  0.007	 35.100	 98.831	 -1.029
71762	 -0.047	  0.063	  0.689	  1.657	  0.887	 -9.578	 -0.004	  0.005	  0.004	 35.100	 98.842	 -2.034
71812	 -0.047	  0.056	  0.686	  1.677	  0.864	 -9.549	 -0.002	  0.003	  0.003	 35.100	 98.842	 -2.034
71862	 -0.050	  0.060	  0.683	  1.735	  0.884	 -9.494	  0.001	 -0.003	  0.006	 35.100	 98.831	 -1.029
71912	 -0.047	  0.063	  0.690	  1.703	  0.835	 -9.578	 -0.003	  0.005	  0.007	 35.100	 98.831	 -1.029
71962	 -0.049	  0.053	  0.684	  1.732	  0.848	 -9.534	 -0.004	 -0.000	  0.002	 35.100	 98.827	 -0.662
72012	 -0.048	  0.053	  0.685	  1.716	  0.868	 -9.569	 -0.004	  0.002	  0.006	 35.100	 98.827	 -0.662
72062	 -0.049	  0.054	  0.688	  1.708	  0.846	 -9.556	 -0.004	  0.001	  0.006	 35.100	 98.827	 -0.662
72112	 -0.049	  0.056	  0.688	  1.709	  0.852	 -9.571	 -0.004	  0.001	  0.003	 35.100	 98.831	 -1.029
72162	 -0.049	  0.057	  0.683	  1.723	  0.863	 -9.568	 -0.004	  0.004	  0.003	 35.100	 98.831	 -1.029
72212	 -0.049	  0.058	  0.688	  1.674	  0.862	 -9.535	 -0.004	  0.004	  0.004	 35.100	 98.838	 -1.668
72262	 -0.047	  0.054	  0.688	  1.734	  0.869	 -9.579	 -0.004	  0.002	  0.003	 35.100	 98.842	 -2.034
72312	 -0.049	  0.055	  0.688	  1.680	  0.838	 -9.556	 -0.003	  0.002	  0.003	 35.100	 98.827	 -0.662
72362	 -0.047	  0.056	  0.688	  1.717	  0.866	 -9.541	 -0.004	  0.004	  0.003	 35.100	 98.831	 -1.029
72412	 -0.049	  0.057	  0.689	  1.708	  0.877	 -9.583	 -0.005	  0.003	  0.004	 35.100	 98.831	 -1.029
72462	 -0.045	  0.065	  0.688	  1.740	  0.793	 -9.593	 -0.006	 -0.002	  0.005	 35.100	 98.842	 -2.034
72512	 -0.047	  0.055	  0.690	  1.750	  0.814	 -9.549	 -0.009	  0.005	  0.001	 35.100	 98.820	 -0.023
72562	 -0.049	  0.054	  0.683	  1.670	  0.877	 -9.548	 -0.004	 -0.002	  0.003	 35.100	 98.831	 -1.029
72612	 -0.048	  0.053	  0.681	  1.726	  0.894	 -9.530	 -0.004	  0.003	  0.006	 35.100	 98.842	 -2.034
72662	 -0.047	  0.054	  0.686	  1.692	  0.870	 -9.543	 -0.004	  0.003	  0.004	 35.100	 98.820	 -0.023
72712	 -0.046	  0.054	  0.688	  1.716	  0.852	 -9.579	 -0.004	  0.003	  0.003	 35.100	 98.838	 -1.668
72762	 -0.047	  0.056	  0.688	  1.693	  0.876	 -9.566	 -0.004	  0.002	  0.004	 35.100	 98.842	 -2.034
72812	 -0.047	  0.056	  0.685	  1.699	  0.869	 -9.572	 -0.005	  0.002	  0.004	 35.100	 98.827	 -0.662
72862	 -0.047	  0.055	  0.685	  1.681	  0.850	 -9.590	 -0.002	  0.004	  0.004	 35.100	 98.850	 -2.765
72912	 -0.047	  0.061	  0.691	  1.765	  0.875	 -9.449	 -0.003	  0.001	  0.003	 35.100	 98.827	 -0.662
72962	 -0.045	  0.055	  0.687	  1.688	  0.865	 -9.569	 -0.012	  0.004	 -0.002	 35.100	 98.842	 -2.034
73013	 -0.046	  0.054	  0.688	  2.170	  0.682	 -8.863	 -0.013	 -0.013	 -0.007	 35.100	 98.827	 -0.662
73062	 -0.049	  0.056	  0.685	  1.684	  1.195	 -9.531	 -0.020	  0.015	 -0.008	 35.100	 98.827	 -0.662
73113	 -0.048	  0.063	  0.686	  1.666	  0.867	 -9.555	 -0.003	 -0.004	  0.008	 35.100	 98.838	 -1.668
73162	 -0.049	  0.060	  0.687	  1.695	  0.915	 -9.573	  0.000	 -0.003	  0.008	 35.100	 98.842	 -2.034
73213	 -0.047	  0.057	  0.686	  1.559	  0.881	 -9.663	  0.001	  0.001	  0.010	 35.100	 98.838	 -1.668
73262	 -0.047	  0.057	  0.686	  1.731	  0.796	 -9.555	 -0.002	  0.004	  0.006	 35.100	 98.831	 -1.029
73313	 -0.049	  0.061	  0.687	  1.795	  0.856	 -9.515	 -0.002	 -0.000	  0.001	 35.100	 98.838	 -1.668
73363	 -0.046	  0.054	  0.684	  1.693	  0.882	 -9.537	 -0.011	  0.006	  0.000	 35.100	 98.838	 -1.668
73413	 -0.047	  0.058	  0.689	  1.740	  0.846	 -9.547	 -0.003	  0.000	  0.005	 35.100	 98.838	 -1.668
73463	 -0.047	  0.054	  0.689	  1.596	  0.858	 -9.661	 -0.005	  0.003	  0.007	 35.100	 98.842	 -2.034
73513	 -0.047	  0.058	  0.685	  0.948	  0.766	 -9.564	  0.012	  0.001	 -0.001	 35.100	 98.842	 -2.034
73563	 -0.049	  0.056	  0.688	  1.732	  0.992	 -9.428	 -0.011	  0.015	 -0.000	 35.100	 98.847	 -2.491
73613	 -0.047	  0.055	  0.682	  1.630	  0.783	 -9.585	 -0.017	  0.009	 -0.005	 35.100	 98.842	 -2.034
73663	 -0.049	  0.054	  0.691	  1.623	  0.788	 -9.644	 -0.004	  0.001	  0.005	 35.100	 98.838	 -1.668
73713	 -0.047	  0.057	  0.683	  1.101	  1.011	 -9.914	 -0.007	  0.002	  0.015	 35.100	 98.827	 -0.662
73763	 -0.047	  0.056	  0.686	  1.060	  1.077	 -9.990	 -0.053	  0.036	  0.007	 35.100	 98.854	 -3.131
73813	 -0.047	  0.067	  0.687	  2.311	  0.626	 -9.335	  0.001	 -0.010	  0.001	 35.100	 98.854	 -3.131
73863	 -0.047	  0.056	  0.690	  2.002	  0.825	 -9.387	  0.007	 -0.008	  0.004	 35.100	 98.854	 -3.131
73913	 -0.047	  0.058	  0.682	  1.747	  1.024	 -9.419	 -0.014	  0.010	 -0.000	 35.100	 98.838	 -1.668
73963	 -0.049	  0.053	  0.689	  1.695	  1.040	 -9.486	 -0.006	 -0.002	 -0.000	 35.100	 98.854	 -3.131
74013	 -0.047	  0.054	  0.688	  1.995	  0.581	 -9.592	 -0.015	 -0.005	 -0.005	 35.100	 98.850	 -2.765
74063	 -0.046	  0.052	  0.688	  1.602	  1.050	 -9.737	 -0.021	 -0.010	 -0.002	 35.100	 98.850	 -2.765
74113	 -0.046	  0.056	  0.690	  1.893	  0.864	 -9.421	 -0.015	 -0.012	 -0.015	 35.100	 98.872	 -4.776
74163	 -0.046	  0.065	  0.688	  1.374	  0.756	 -9.865	 -0.022	  0.042	  0.007	 35.100	 98.838	 -1.668
74213	 -0.047	  0.055	  0.688	  1.849	  0.689	 -9.515	 -0.000	  0.015	 -0.001	 35.100	 98.861	 -3.770
74263	 -0.047	  0.056	  0.685	  1.735	  0.984	 -9.329	 -0.010	  0.019	  0.009	 35.100	 98.907	 -7.973
74313	 -0.047	  0.056	  0.683	  1.681	  1.078	 -9.584	  0.001	  0.003	 -0.004	 35.100	 98.952	 -12.082
74363	 -0.047	  0.059	  0.686	  3.402	  0.422	 -8.993	 -0.017	  0.041	  0.001	 35.100	 98.990	 -15.551
74413	 -0.044	  0.057	  0.685	  1.696	  0.392	 -9.846	 -0.030	  0.012	  0.021	 35.100	 99.100	 -25.581
74463	 -0.046	  0.048	  0.684	  1.431	  1.048	 -9.622	  0.022	  0.002	  0.015	 35.100	 99.127	 -28.041
74513	 -0.045	  0.050	  0.689	  1.805	  1.299	 -9.127	 -0.029	  0.050	 -0.002	 35.100	 99.430	 -55.594
74563	 -0.047	  0.053	  0.688	  1.786	  0.163	 -9.649	 -0.018	  0.022	 -0.016	 35.100	 99.567	 -68.020
74613	 -0.045	  0.058	  0.689	  1.660	  0.903	 -9.843	 -0.003	 -0.007	  0.014	 35.100	 99.647	 -75.266
74663	 -0.043	  0.053	  0.687	  1.924	  0.812	 -9.450	  0.009	  0.019	 -0.002	 35.100	 99.647	 -75.266
74713	 -0.045	  0.050	  0.687	  1.646	  0.735	 -9.665	  0.006	 -0.010	  0.020	 35.100	 99.658	 -76.262
74763	 -0.044	  0.054	  0.691	  1.803	  0.658	 -9.569	  0.015	  0.013	  0.009	 35.100	 99.624	 -73.184
74813	 -0.041	  0.052	  0.688	  1.521	  0.633	 -9.801	 -0.001	  0.014	  0.007	 35.100	 99.612	 -72.097
74863	 -0.045	  0.054	  0.690	  1.319	  0.592	 -9.984	 -0.091	  0.023	  0.002	 35.100	 99.578	 -69.017
74913	 -0.047	  0.056	  0.685	  1.706	  0.602	 -9.739	  0.007	 -0.008	  0.016	 35.100	 99.555	 -66.932
74963	 -0.048	  0.053	  0.685	  1.663	  0.747	 -9.645	 -0.008	  0.008	  0.004	 35.100	 99.533	 -64.939
75013	 -0.046	  0.052	  0.687	  1.674	  0.791	 -9.581	 -0.013	  0.006	  0.003	 35.100	 99.521	 -63.851
75063	 -0.045	  0.050	  0.689	  1.709	  0.574	 -9.624	  0.013	  0.004	  0.011	 35.100	 99.499	 -61.856
75112	 -0.046	  0.053	  0.687	  1.741	  0.779	 -9.582	 -0.006	  0.005	  0.005	 35.100	 99.476	 -59.769
75163	 -0.045	  0.048	  0.691	  1.675	  0.881	 -9.596	 -0.003	  0.005	  0.003	 35.100	 99.464	 -58.680
75213	 -0.046	  0.049	  0.683	  1.482	  1.134	 -9.614	  0.010	 -0.007	  0.009	 35.100	 99.453	 -57.682
75263	 -0.047	  0.054	  0.688	  1.669	  0.909	 -9.515	  0.003	  0.003	  0.004	 35.100	 99.430	 -55.594
75313	 -0.047	  0.054	  0.686	  1.524	  1.055	 -9.629	 -0.003	  0.011	  0.005	 35.100	 99.419	 -54.597
75363	 -0.049	  0.050	  0.684	  1.755	  0.934	 -9.491	 -0.001	  0.006	 -0.001	 35.100	 99.396	 -52.509
75413	 -0.047	  0.050	  0.691	  1.788	  0.885	 -9.501	 -0.003	 -0.001	  0.002	 35.100	 99.385	 -51.510
75463	 -0.045	  0.059	  0.689	  1.661	  0.948	 -9.606	 -0.002	 -0.002	  0.006	 35.100	 99.377	 -50.782
75513	 -0.046	  0.054	  0.690	  1.688	  0.889	 -9.576	 -0.002	  0.002	  0.004	 35.100	 99.351	 -48.420
75563	 -0.048	  0.061	  0.687	  1.716	  0.885	 -9.551	 -0.002	  0.001	  0.004	 35.100	 99.339	 -47.330
75613	 -0.047	  0.049	  0.688	  1.682	  0.888	 -9.568	 -0.004	  0.002	  0.004	 35.100	 99.328	 -46.331
75663	 -0.047	  0.052	  0.690	  1.675	  0.895	 -9.574	 -0.004	  0.001	  0.003	 35.100	 99.316	 -45.240
75713	 -0.044	  0.055	  0.689	  1.709	  0.835	 -9.543	 -0.001	  0.008	  0.005	 35.100	 99.305	 -44.240
75762	 -0.046	  0.053	  0.690	  1.730	  0.855	 -9.535	 -0.005	  0.003	  0.000	 35.100	 99.298	 -43.604
75813	 -0.047	  0.054	  0.689	  1.674	  0.920	 -9.516	 -0.003	 -0.001	  0.004	 35.100	 99.271	 -41.150
75862	 -0.048	  0.051	  0.692	  1.671	  0.901	 -9.582	 -0.003	  0.004	  0.004	 35.100	 99.271	 -41.150
75912	 -0.046	  0.052	  0.687	  1.711	  0.902	 -9.593	 -0.004	  0.005	  0.004	 35.100	 99.264	 -40.512
75962	 -0.046	  0.053	  0.684	  1.727	  0.902	 -9.565	 -0.004	  0.003	  0.003	 35.100	 99.248	 -39.057
76012	 -0.047	  0.056	  0.686	  1.703	  0.903	 -9.502	 -0.004	  0.003	  0.004	 35.100	 99.229	 -37.328
76063	 -0.047	  0.062	  0.692	  1.699	  0.867	 -9.613	 -0.004	  0.003	  0.004	 35.100	 99.214	 -35.963
76112	 -0.047	  0.051	  0.685	  1.694	  0.887	 -9.500	 -0.004	  0.004	  0.004	 35.100	 99.203	 -34.962
76163	 -0.047	  0.053	  0.688	  1.699	  0.898	 -9.539	 -0.005	  0.003	  0.004	 35.100	 99.191	 -33.870
76212	 -0.048	  0.051	  0.689	  1.649	  0.918	 -9.542	 -0.004	  0.004	  0.003	 35.100	 99.191	 -33.870
76262	 -0.043	  0.055	  0.690	  1.743	  0.896	 -9.549	 -0.005	  0.004	  0.002	 35.100	 99.168	 -31.776
76312	 -0.047	  0.054	  0.688	  1.709	  0.894	 -9.525	 -0.004	  0.003	  0.004	 35.100	 99.173	 -32.231
76362	 -0.047	  0.051	  0.688	  1.713	  0.907	 -9.556	 -0.006	  0.002	  0.003	 35.100	 99.157	 -30.774
76412	 -0.045	  0.060	  0.689	  1.703	  0.897	 -9.574	 -0.003	  0.002	  0.003	 35.100	 99.157	 -30.774
76462	 -0.047	  0.060	  0.689	  1.726	  0.887	 -9.583	 -0.004	  0.001	  0.004	 35.100	 99.142	 -29.408
76512	 -0.046	  0.051	  0.692	  1.699	  0.926	 -9.517	 -0.005	  0.002	  0.004	 35.100	 99.134	 -28.680
76562	 -0.049	  0.052	  0.685	  1.691	  0.906	 -9.602	 -0.004	  0.005	  0.004	 35.100	 99.112	 -26.675
76612	 -0.047	  0.060	  0.686	  1.696	  0.893	 -9.529	 -0.005	  0.002	  0.003	 35.100	 99.112	 -26.675
76662	 -0.048	  0.053	  0.681	  1.705	  0.862	 -9.588	 -0.004	  0.002	  0.003	 35.100	 99.112	 -26.675
76712	 -0.047	  0.048	  0.690	  1.695	  0.915	 -9.528	 -0.005	  0.004	  0.004	 35.100	 99.100	 -25.581
76762	 -0.046	  0.051	  0.685	  1.674	  0.906	 -9.568	 -0.004	  0.003	  0.004	 35.100	 99.089	 -24.578
76812	 -0.045	  0.061	  0.692	  1.696	  0.882	 -9.553	 -0.005	  0.002	  0.004	 35.100	 99.089	 -24.578
76862	 -0.044	  0.050	  0.688	  1.704	  0.907	 -9.530	 -0.004	  0.002	  0.004	 35.100	 99.066	 -22.482
76912	 -0.047	  0.052	  0.687	  1.732	  0.915	 -9.553	 -0.005	  0.005	  0.002	 35.100	 99.066	 -22.482
76962	 -0.046	  0.056	  0.692	  1.683	  0.909	 -9.571	 -0.003	  0.004	  0.003	 35.100	 99.066	 -22.482
77012	 -0.044	  0.050	  0.688	  1.696	  0.920	 -9.526	 -0.004	  0.002	  0.005	 35.100	 99.066	 -22.482
77062	 -0.049	  0.052	  0.693	  1.686	  0.895	 -9.531	 -0.003	 -0.000	  0.004	 35.100	 99.066	 -22.482
77112	 -0.047	  0.054	  0.684	  1.697	  0.904	 -9.583	 -0.003	  0.004	  0.003	 35.100	 99.055	 -21.479
77162	 -0.047	  0.054	  0.685	  1.706	  0.904	 -9.553	 -0.003	  0.002	  0.003	 35.100	 99.043	 -20.386
77212	 -0.047	  0.061	  0.686	  1.701	  0.871	 -9.546	 -0.004	  0.002	  0.004	 35.100	 99.043	 -20.386
77262	 -0.045	  0.052	  0.690	  1.684	  0.923	 -9.571	 -0.003	  0.001	  0.003	 35.100	 99.036	 -19.748
77312	 -0.046	  0.051	  0.685	  1.713	  0.892	 -9.561	 -0.005	  0.003	  0.003	 35.100	 99.020	 -18.287
77362	 -0.045	  0.053	  0.685	  1.704	  0.906	 -9.511	 -0.004	  0.003	  0.003	 35.100	 99.016	 -17.923
77412	 -0.046	  0.050	  0.683	  1.697	  0.894	 -9.577	 -0.004	  0.004	  0.003	 35.100	 99.009	 -17.285
77462	 -0.045	  0.045	  0.689	  1.691	  0.909	 -9.548	 -0.004	  0.002	  0.004	 35.100	 99.016	 -17.923
77512	 -0.044	  0.052	  0.690	  1.706	  0.899	 -9.547	 -0.005	  0.002	  0.004	 35.100	 98.998	 -16.281
77562	 -0.048	  0.050	  0.688	  1.709	  0.922	 -9.554	 -0.004	  0.001	  0.004	 35.100	 98.998	 -16.281
77612	 -0.048	  0.052	  0.689	  1.700	  0.881	 -9.568	 -0.003	  0.001	  0.003	 35.100	 98.998	 -16.281
77662	 -0.047	  0.054	  0.689	  1.691	  0.902	 -9.550	 -0.004	  0.001	  0.002	 35.100	 98.994	 -15.917
77713	 -0.045	  0.060	  0.688	  1.704	  0.886	 -9.526	 -0.004	  0.004	  0.005	 35.100	 98.998	 -16.281
77762	 -0.048	  0.050	  0.688	  1.690	  0.890	 -9.572	 -0.003	  0.002	  0.003	 35.000	 98.975	 -14.181
77812	 -0.045	  0.053	  0.690	  1.691	  0.894	 -9.519	 -0.004	  0.003	  0.004	 35.100	 98.975	 -14.181
77862	 -0.045	  0.058	  0.688	  1.712	  0.900	 -9.576	 -0.005	  0.002	  0.003	 35.100	 98.986	 -15.186
77912	 -0.045	  0.053	  0.689	  1.695	  0.886	 -9.559	 -0.005	  0.002	  0.003	 35.100	 98.986	 -15.186
77962	 -0.045	  0.052	  0.688	  1.695	  0.890	 -9.568	 -0.006	  0.003	  0.004	 35.000	 98.975	 -14.181
78012	 -0.045	  0.061	  0.685	  1.684	  0.903	 -9.552	 -0.003	  0.003	  0.003	 35.100	 98.975	 -14.181
78062	 -0.046	  0.054	  0.692	  1.700	  0.900	 -9.531	 -0.003	  0.002	  0.002	 35.100	 98.975	 -14.181
78112	 -0.047	  0.059	  0.690	  1.684	  0.892	 -9.551	 -0.004	  0.002	  0.005	 35.100	 98.964	 -13.177
78162	 -0.045	  0.062	  0.689	  1.723	  0.878	 -9.595	 -0.005	  0.003	  0.004	 35.100	 98.952	 -12.082
78212	 -0.048	  0.052	  0.689	  1.705	  0.887	 -9.555	 -0.004	  0.001	  0.004	 35.000	 98.948	 -11.717
78262	 -0.046	  0.055	  0.688	  1.681	  0.892	 -9.524	 -0.006	  0.002	  0.003	 35.100	 98.948	 -11.717
78312	 -0.047	  0.056	  0.686	  1.686	  0.877	 -9.564	 -0.004	  0.002	  0.004	 35.100	 98.952	 -12.082
78362	 -0.047	  0.056	  0.689	  1.731	  0.896	 -9.553	 -0.003	  0.004	  0.004	 35.000	 98.952	 -12.082
78412	 -0.046	  0.051	  0.688	  1.699	  0.904	 -9.519	 -0.004	  0.001	  0.003	 35.100	 98.964	 -13.177
78462	 -0.046	  0.055	  0.688	  1.708	  0.898	 -9.574	 -0.006	  0.002	  0.004	 35.100	 98.952	 -12.082
78512	 -0.046	  0.053	  0.685	  1.727	  0.871	 -9.545	 -0.004	  0.003	  0.004	 35.000	 98.948	 -11.717
78562	 -0.048	  0.051	  0.690	  1.685	  0.886	 -9.545	 -0.003	  0.003	  0.004	 35.000	 98.929	 -9.983
78612	 -0.047	  0.055	  0.691	  1.662	  0.899	 -9.589	 -0.005	  0.001	  0.004	 35.000	 98.914	 -8.612
78662	 -0.047	  0.049	  0.687	  1.712	  0.875	 -9.552	 -0.004	  0.005	  0.002	 35.100	 98.925	 -9.617
78712	 -0.045	  0.052	  0.692	  1.695	  0.914	 -9.539	 -0.005	  0.003	  0.003	 35.100	 98.929	 -9.983
78762	 -0.047	  0.054	  0.685	  1.700	  0.910	 -9.587	 -0.003	  0.002	  0.005	 35.100	 98.925	 -9.617
78813	 -0.047	  0.052	  0.690	  1.709	  0.882	 -9.561	 -0.004	 -0.000	  0.004	 35.100	 98.929	 -9.983
78862	 -0.047	  0.051	  0.687	  1.728	  0.869	 -9.537	 -0.003	  0.000	  0.003	 35.100	 98.925	 -9.617
78913	 -0.046	  0.055	  0.687	  1.697	  0.895	 -9.561	 -0.004	  0.002	  0.003	 35.100	 98.929	 -9.983
78962	 -0.047	  0.060	  0.688	  1.670	  0.895	 -9.564	 -0.004	  0.003	  0.005	 35.000	 98.941	 -11.078
79012	 -0.047	  0.054	  0.690	  1.720	  0.880	 -9.547	 -0.002	  0.002	  0.003	 35.100	 98.929	 -9.983
79063	 -0.046	  0.053	  0.685	  1.701	  0.898	 -9.566	 -0.005	  0.003	  0.004	 35.100	 98.929	 -9.983
79112	 -0.048	  0.051	  0.689	  1.701	  0.877	 -9.552	 -0.003	  0.003	  0.003	 35.100	 98.918	 -8.978
79163	 -0.047	  0.055	  0.689	  1.712	  0.873	 -9.554	 -0.004	  0.000	  0.003	 35.100	 98.907	 -7.973
79213	 -0.048	  0.052	  0.690	  1.717	  0.896	 -9.566	 -0.005	  0.004	  0.003	 35.000	 98.925	 -9.617
79263	 -0.047	  0.051	  0.687	  1.698	  0.907	 -9.554	 -0.004	  0.003	  0.004	 35.000	 98.907	 -7.973
79313	 -0.046	  0.051	  0.689	  1.687	  0.881	 -9.520	 -0.004	  0.004	  0.003	 35.000	 98.914	 -8.612
79363	 -0.049	  0.055	  0.691	  1.712	  0.891	 -9.562	 -0.004	  0.004	  0.005	 35.100	 98.902	 -7.517
79413	 -0.043	  0.059	  0.689	  1.698	  0.898	 -9.561	 -0.003	  0.003	  0.002	 35.100	 98.907	 -7.973
79463	 -0.047	  0.050	  0.689	  1.692	  0.900	 -9.545	 -0.004	  0.002	  0.004	 35.000	 98.902	 -7.517
79513	 -0.046	  0.056	  0.687	  1.704	  0.863	 -9.575	 -0.003	  0.002	  0.003	 35.000	 98.902	 -7.517
79563	 -0.047	  0.061	  0.690	  1.703	  0.904	 -9.518	 -0.004	  0.001	  0.004	 35.000	 98.907	 -7.973
79613	 -0.047	  0.055	  0.685	  1.709	  0.877	 -9.555	 -0.004	  0.003	  0.004	 35.000	 98.902	 -7.517
79663	 -0.045	  0.057	  0.690	  1.663	  0.909	 -9.552	 -0.003	  0.001	  0.004	 35.100	 98.902	 -7.517
79713	 -0.046	  0.053	  0.688	  1.692	  0.891	 -9.562	 -0.003	  0.005	  0.003	 35.000	 98.891	 -6.512
79763	 -0.046	  0.053	  0.689	  1.702	  0.886	 -9.534	 -0.004	  0.001	  0.002	 35.000	 98.895	 -6.877
79813	 -0.047	  0.057	  0.688	  1.700	  0.884	 -9.549	 -0.004	  0.003	  0.003	 35.100	 98.907	 -7.973
79863	 -0.045	  0.052	  0.689	  1.704	  0.904	 -9.550	 -0.004	  0.003	  0.003	 35.000	 98.895	 -6.877
79913	 -0.047	  0.051	  0.689	  1.700	  0.874	 -9.555	 -0.002	  0.002	  0.003	 35.000	 98.891	 -6.512
79963	 -0.048	  0.051	  0.688	  1.682	  0.910	 -9.534	 -0.005	  0.004	  0.003	 35.100	 98.895	 -6.877
80013	 -0.046	  0.055	  0.687	  1.702	  0.875	 -9.570	 -0.004	  0.003	  0.004	 35.100	 98.895	 -6.877
80063	 -0.049	  0.052	  0.683	  1.705	  0.887	 -9.529	 -0.003	  0.003	  0.003	 35.000	 98.902	 -7.517
80113	 -0.049	  0.052	  0.689	  1.701	  0.888	 -9.557	 -0.003	  0.002	  0.005	 35.100	 98.907	 -7.973
80163	 -0.047	  0.056	  0.683	  1.706	  0.879	 -9.551	 -0.004	  0.000	  0.005	 35.100	 98.891	 -6.512
80213	 -0.047	  0.051	  0.688	  1.700	  0.914	 -9.521	 -0.005	  0.003	  0.004	 35.100	 98.895	 -6.877
80263	 -0.047	  0.061	  0.690	  1.681	  0.892	 -9.591	 -0.006	  0.003	  0.004	 35.100	 98.895	 -6.877
80313	 -0.047	  0.053	  0.692	  1.688	  0.894	 -9.565	 -0.004	  0.003	  0.003	 35.000	 98.891	 -6.512
80363	 -0.045	  0.057	  0.689	  1.717	  0.891	 -9.543	 -0.004	  0.002	  0.005	 35.000	 98.895	 -6.877
80413	 -0.045	  0.051	  0.690	  1.691	  0.886	 -9.528	 -0.004	  0.003	  0.003	 35.000	 98.891	 -6.512
80463	 -0.046	  0.051	  0.689	  1.685	  0.895	 -9.561	 -0.004	  0.000	  0.003	 35.000	 98.891	 -6.512
80513	 -0.045	  0.057	  0.690	  1.629	  0.908	 -9.536	 -0.004	 -0.001	  0.005	 35.000	 98.880	 -5.507
80563	 -0.045	  0.060	  0.689	  1.724	  0.848	 -9.614	 -0.006	  0.004	  0.004	 35.000	 98.872	 -4.776
80613	 -0.049	  0.053	  0.690	  1.745	  0.917	 -9.544	 -0.009	  0.005	  0.002	 35.100	 98.816	  0.343
80663	 -0.045	  0.059	  0.689	  1.677	  0.924	 -9.532	 -0.004	  0.003	  0.003	 35.100	 98.720	  9.127
80713	 -0.045	  0.056	  0.685	  1.692	  0.923	 -9.549	 -0.004	  0.002	  0.003	 35.000	 98.618	 18.471
80763	 -0.046	  0.054	  0.684	  1.707	  0.881	 -9.553	 -0.005	  0.001	  0.003	 35.000	 98.474	 31.681
80813	 -0.047	  0.059	  0.689	  1.687	  0.911	 -9.508	 -0.004	  0.002	  0.004	 35.000	 98.311	 46.663
80863	 -0.045	  0.060	  0.691	  1.713	  0.886	 -9.555	 -0.005	  0.002	  0.003	 35.000	 98.155	 61.028
80913	 -0.043	  0.052	  0.688	  1.685	  0.888	 -9.568	 -0.005	  0.004	  0.004	 35.000	 97.980	 77.176
80963	 -0.046	  0.051	  0.690	  1.695	  0.864	 -9.558	 -0.003	  0.003	  0.005	 35.100	 97.798	 94.006
81013	 -0.047	  0.055	  0.688	  1.695	  0.909	 -9.573	 -0.004	  0.002	  0.003	 35.000	 97.616	 110.873
81063	 -0.046	  0.052	  0.687	  1.716	  0.874	 -9.554	 -0.005	  0.003	  0.004	 35.100	 97.434	 127.778
81113	 -0.047	  0.052	  0.684	  1.686	  0.899	 -9.571	 -0.005	  0.004	  0.004	 35.000	 97.263	 143.696
81163	 -0.046	  0.051	  0.685	  1.689	  0.873	 -9.565	 -0.003	  0.005	  0.005	 35.000	 97.070	 161.701
81213	 -0.047	  0.054	  0.688	  1.696	  0.896	 -9.566	 -0.003	  0.003	  0.004	 35.100	 96.915	 176.192
81263	 -0.046	  0.055	  0.689	  1.704	  0.877	 -9.549	 -0.003	  0.003	  0.004	 35.000	 96.744	 192.211
81313	 -0.047	  0.052	  0.693	  1.745	  0.875	 -9.547	 -0.004	  0.002	  0.002	 35.000	 96.558	 209.674
81363	 -0.047	  0.052	  0.683	  1.688	  0.897	 -9.565	 -0.003	  0.003	  0.004	 35.000	 96.380	 226.423
81412	 -0.049	  0.059	  0.687	  1.688	  0.887	 -9.533	 -0.005	  0.004	  0.004	 35.000	 96.228	 240.755
81462	 -0.045	  0.058	  0.683	  1.690	  0.908	 -9.581	 -0.004	  0.004	  0.004	 35.100	 96.049	 257.667
81512	 -0.048	  0.061	  0.690	  1.691	  0.882	 -9.571	 -0.003	  0.001	  0.003	 35.000	 95.886	 273.100
81563	 -0.047	  0.055	  0.688	  1.706	  0.893	 -9.558	 -0.004	  0.003	  0.004	 35.000	 95.742	 286.760
81612	 -0.048	  0.052	  0.689	  1.698	  0.877	 -9.551	 -0.004	  0.003	  0.002	 35.100	 95.571	 303.014
81662	 -0.046	  0.052	  0.688	  1.692	  0.890	 -9.542	 -0.003	  0.001	  0.004	 35.000	 95.419	 317.490
81712	 -0.049	  0.051	  0.690	  1.720	  0.899	 -9.555	 -0.003	  0.004	  0.004	 35.100	 95.309	 327.984
81762	 -0.044	  0.053	  0.688	  1.710	  0.869	 -9.553	 -0.004	  0.004	  0.003	 35.100	 95.127	 345.377
81812	 -0.044	  0.050	  0.687	  1.693	  0.893	 -9.574	 -0.003	  0.002	  0.003	 35.000	 94.998	 357.730
81862	 -0.049	  0.054	  0.691	  1.721	  0.885	 -9.528	 -0.004	  0.001	  0.004	 35.100	 94.843	 372.598
81912	 -0.047	  0.049	  0.689	  1.688	  0.875	 -9.538	 -0.003	  0.003	  0.003	 35.000	 94.714	 384.995
81962	 -0.047	  0.054	  0.691	  1.690	  0.908	 -9.546	 -0.004	  0.003	  0.003	 35.100	 94.558	 400.013
82012	 -0.047	  0.052	  0.686	  1.712	  0.877	 -9.580	 -0.005	  0.003	  0.004	 35.000	 94.406	 414.675
82062	 -0.045	  0.057	  0.684	  1.681	  0.890	 -9.586	 -0.005	  0.004	  0.002	 35.000	 94.274	 427.429
82112	 -0.045	  0.052	  0.690	  1.692	  0.897	 -9.609	 -0.003	  0.002	  0.003	 35.100	 94.137	 440.690
82162	 -0.047	  0.054	  0.688	  1.721	  0.889	 -9.551	 -0.005	  0.004	  0.002	 35.100	 93.996	 454.362
82212	 -0.046	  0.053	  0.688	  1.705	  0.883	 -9.566	 -0.006	  0.002	  0.003	 35.000	 93.860	 467.572
82262	 -0.048	  0.052	  0.686	  1.698	  0.887	 -9.547	 -0.005	  0.005	  0.003	 35.000	 93.704	 482.753
82312	 -0.049	  0.053	  0.689	  1.700	  0.868	 -9.540	 -0.004	  0.003	  0.006	 35.100	 93.556	 497.184
82362	 -0.049	  0.054	  0.691	  1.724	  0.887	 -9.561	 -0.005	  0.003	  0.003	 35.000	 93.408	 511.641
82412	 -0.046	  0.052	  0.689	  1.689	  0.879	 -9.534	 -0.004	  0.002	  0.004	 35.000	 93.268	 525.343
82462	 -0.048	  0.052	  0.689	  1.709	  0.873	 -9.544	 -0.003	  0.005	  0.004	 35.000	 93.135	 538.381
82512	 -0.046	  0.054	  0.688	  1.687	  0.926	 -9.522	 -0.003	  0.003	  0.003	 35.000	 92.972	 554.391
82562	 -0.046	  0.051	  0.690	  1.710	  0.895	 -9.554	 -0.006	  0.004	  0.003	 35.000	 92.839	 567.480
82612	 -0.049	  0.059	  0.691	  1.705	  0.893	 -9.555	 -0.003	  0.003	  0.005	 35.000	 92.699	 581.281
82662	 -0.049	  0.056	  0.684	  1.728	  0.898	 -9.530	 -0.004	  0.005	  0.003	 35.000	 92.543	 596.689
82712	 -0.047	  0.053	  0.682	  1.687	  0.882	 -9.537	 -0.004	  0.003	  0.002	 35.100	 92.395	 611.335
82762	 -0.049	  0.057	  0.690	  1.722	  0.888	 -9.574	 -0.003	  0.002	  0.003	 35.000	 92.247	 626.009
82812	 -0.049	  0.056	  0.690	  1.697	  0.903	 -9.588	 -0.004	  0.003	  0.003	 35.100	 92.111	 639.518
82862	 -0.047	  0.055	  0.682	  1.692	  0.862	 -9.584	 -0.004	  0.004	  0.005	 35.100	 91.951	 655.443
82912	 -0.047	  0.055	  0.692	  1.695	  0.892	 -9.550	 -0.004	  0.005	  0.003	 35.100	 91.803	 670.201
82962	 -0.047	  0.054	  0.682	  1.683	  0.887	 -9.555	 -0.004	  0.004	  0.005	 35.000	 91.652	 685.288
83012	 -0.049	  0.052	  0.691	  1.712	  0.892	 -9.579	 -0.004	  0.004	  0.004	 35.100	 91.519	 698.601
83062	 -0.047	  0.053	  0.686	  1.676	  0.882	 -9.563	 -0.004	  0.001	  0.005	 35.100	 91.344	 716.153
83112	 -0.048	  0.052	  0.683	  1.700	  0.909	 -9.522	 -0.005	  0.001	  0.003	 35.100	 91.223	 728.313
83162	 -0.049	  0.054	  0.691	  1.686	  0.906	 -9.552	 -0.004	  0.005	  0.003	 35.100	 91.060	 744.724
83212	 -0.046	  0.052	  0.693	  1.685	  0.889	 -9.558	 -0.005	  0.001	  0.002	 35.000	 90.923	 758.545
83262	 -0.047	  0.052	  0.691	  1.705	  0.892	 -9.544	 -0.005	  0.003	  0.004	 35.100	 90.768	 774.211
83312	 -0.046	  0.054	  0.688	  1.711	  0.893	 -9.531	 -0.004	  0.002	  0.003	 35.100	 90.654	 785.753
83362	 -0.044	  0.068	  0.673	  1.608	  0.910	 -9.549	 -0.005	 -0.003	  0.027	 35.000	 90.479	 803.505
83412	 -0.040	  0.058	  0.683	  1.648	  0.896	 -9.547	 -0.007	  0.015	 -0.014	 35.100	 90.346	 817.024
83462	 -0.036	  0.062	  0.678	  1.715	  0.828	 -9.559	 -0.005	  0.009	 -0.006	 35.000	 90.198	 832.096
83512	 -0.032	  0.058	  0.670	  1.703	  0.957	 -9.501	 -0.003	  0.003	  0.004	 35.000	 90.069	 845.257
83562	 -0.038	  0.066	  0.676	  1.716	  0.904	 -9.557	 -0.003	  0.002	  0.003	 35.100	 89.921	 860.383
83612	 -0.041	  0.059	  0.673	  1.698	  0.887	 -9.531	 -0.004	  0.004	  0.004	 35.000	 89.762	 876.668
83662	 -0.041	  0.063	  0.676	  1.700	  0.908	 -9.533	 -0.003	  0.003	  0.003	 35.100	 89.625	 890.726
83712	 -0.039	  0.060	  0.671	  1.717	  0.906	 -9.566	 -0.004	  0.002	  0.004	 35.000	 89.489	 904.708
83762	 -0.040	  0.060	  0.672	  1.721	  0.930	 -9.561	 -0.005	  0.003	  0.005	 35.100	 89.345	 919.539
83812	 -0.038	  0.066	  0.676	  1.712	  0.906	 -9.533	 -0.003	  0.005	  0.004	 35.100	 89.219	 932.539
83862	 -0.040	  0.059	  0.674	  1.736	  0.901	 -9.545	 -0.004	  0.003	  0.002	 35.000	 89.071	 947.838
83912	 -0.043	  0.064	  0.676	  1.703	  0.883	 -9.530	 -0.003	  0.004	  0.004	 35.000	 88.942	 961.198
83962	 -0.037	  0.064	  0.675	  1.629	  1.003	 -9.574	 -0.002	  0.000	  0.005	 35.100	 88.794	 976.553
84012	 -0.040	  0.062	  0.669	  1.743	  0.908	 -9.513	 -0.005	  0.004	 -0.002	 35.000	 88.658	 990.691
84062	 -0.041	  0.068	  0.675	  1.759	  0.861	 -9.572	 -0.005	  0.005	  0.002	 35.100	 88.514	 1005.688
84112	 -0.039	  0.062	  0.674	  1.711	  0.923	 -9.523	 -0.004	  0.004	  0.004	 35.100	 88.400	 1017.581
84162	 -0.039	  0.060	  0.673	  1.726	  0.934	 -9.557	 -0.005	  0.004	  0.002	 35.100	 88.252	 1033.049
84212	 -0.042	  0.061	  0.676	  1.709	  0.892	 -9.542	 -0.002	  0.001	  0.003	 35.100	 88.127	 1046.137
84262	 -0.040	  0.062	  0.675	  1.742	  0.888	 -9.540	 -0.004	  0.002	  0.002	 35.100	 87.975	 1062.082
84312	 -0.039	  0.061	  0.676	  1.652	  0.901	 -9.587	 -0.002	  0.002	  0.006	 35.100	 87.853	 1074.904
84362	 -0.037	  0.060	  0.673	  1.702	  0.902	 -9.568	 -0.005	  0.005	  0.003	 35.100	 87.717	 1089.221
84412	 -0.040	  0.057	  0.673	  1.700	  0.915	 -9.555	 -0.004	  0.002	  0.003	 35.100	 87.592	 1102.404
84463	 -0.041	  0.059	  0.676	  1.719	  0.905	 -9.543	 -0.004	  0.003	  0.003	 35.100	 87.451	 1117.303
84512	 -0.040	  0.064	  0.673	  1.692	  0.886	 -9.563	 -0.005	  0.002	  0.003	 35.000	 87.315	 1131.698
84563	 -0.043	  0.062	  0.678	  1.685	  0.886	 -9.533	 -0.002	  0.001	  0.005	 35.000	 87.178	 1146.228
84612	 -0.040	  0.061	  0.669	  1.691	  0.901	 -9.558	 -0.004	  0.002	  0.003	 35.000	 87.053	 1159.509
84663	 -0.043	  0.063	  0.673	  1.694	  0.880	 -9.565	 -0.003	  0.003	  0.004	 35.100	 86.920	 1173.664
84712	 -0.041	  0.071	  0.674	  1.692	  0.903	 -9.550	 -0.004	  0.002	  0.005	 35.100	 86.806	 1185.818
84762	 -0.042	  0.060	  0.674	  1.732	  0.900	 -9.551	 -0.005	  0.004	  0.004	 35.000	 86.670	 1200.341
84813	 -0.041	  0.063	  0.671	  1.714	  0.909	 -9.537	 -0.003	  0.004	  0.004	 35.100	 86.544	 1213.822
84863	 -0.040	  0.066	  0.678	  1.712	  0.918	 -9.555	 -0.003	  0.003	  0.003	 35.000	 86.419	 1227.218
84913	 -0.041	  0.069	  0.675	  1.692	  0.937	 -9.525	 -0.004	  0.001	  0.002	 35.000	 86.302	 1239.778
84963	 -0.039	  0.058	  0.676	  1.728	  0.922	 -9.552	 -0.004	  0.002	  0.004	 35.100	 86.157	 1255.372
85013	 -0.041	  0.067	  0.675	  1.722	  0.905	 -9.523	 -0.004	  0.003	  0.004	 35.000	 86.028	 1269.271
85063	 -0.041	  0.062	  0.666	  1.718	  0.901	 -9.553	 -0.004	  0.004	  0.003	 35.100	 85.895	 1283.628
85113	 -0.040	  0.060	  0.674	  1.709	  0.916	 -9.570	 -0.004	  0.003	  0.004	 35.100	 85.770	 1297.145
85163	 -0.040	  0.064	  0.674	  1.704	  0.895	 -9.568	 -0.002	  0.003	  0.004	 35.100	 85.645	 1310.686
85213	 -0.043	  0.062	  0.677	  1.716	  0.903	 -9.558	 -0.004	  0.002	  0.002	 35.100	 85.520	 1324.250
85263	 -0.040	  0.065	  0.672	  1.722	  0.888	 -9.562	 -0.003	  0.002	  0.002	 35.100	 85.395	 1337.838
85313	 -0.040	  0.061	  0.675	  1.715	  0.923	 -9.535	 -0.003	  0.003	  0.004	 35.000	 85.266	 1351.885
85363	 -0.041	  0.069	  0.670	  1.692	  0.897	 -9.532	 -0.003	  0.001	  0.004	 35.100	 85.141	 1365.521
85413	 -0.041	  0.061	  0.669	  1.718	  0.912	 -9.565	 -0.003	  0.002	  0.004	 35.100	 85.008	 1380.055
85463	 -0.040	  0.065	  0.672	  1.712	  0.924	 -9.538	 -0.003	  0.002	  0.003	 35.100	 84.894	 1392.536
85513	 -0.043	  0.059	  0.673	  1.718	  0.892	 -9.548	 -0.005	  0.004	  0.002	 35.100	 84.780	 1405.036
85563	 -0.038	  0.066	  0.673	  1.688	  0.912	 -9.531	 -0.005	  0.002	  0.002	 35.100	 84.643	 1420.084
85613	 -0.041	  0.062	  0.674	  1.733	  0.910	 -9.584	 -0.005	  0.003	  0.003	 35.100	 84.529	 1432.628
85663	 -0.040	  0.063	  0.674	  1.682	  0.910	 -9.546	 -0.005	  0.004	  0.004	 35.100	 84.389	 1448.060
85713	 -0.041	  0.059	  0.671	  1.731	  0.891	 -9.531	 -0.005	  0.004	  0.001	 35.000	 84.275	 1460.649
85763	 -0.040	  0.063	  0.676	  1.704	  0.932	 -9.554	 -0.004	  0.003	  0.004	 35.100	 84.165	 1472.816
85813	 -0.039	  0.060	  0.673	  1.712	  0.906	 -9.558	 -0.004	  0.004	  0.003	 35.100	 84.040	 1486.665
85863	 -0.041	  0.059	  0.675	  1.719	  0.897	 -9.534	 -0.003	  0.002	  0.003	 35.100	 83.926	 1499.316
85913	 -0.039	  0.063	  0.671	  1.717	  0.879	 -9.566	 -0.004	  0.005	  0.003	 35.100	 83.801	 1513.212
85963	 -0.040	  0.064	  0.671	  1.705	  0.905	 -9.577	 -0.003	  0.002	  0.002	 35.100	 83.687	 1525.907
86013	 -0.039	  0.063	  0.672	  1.704	  0.887	 -9.566	 -0.004	  0.005	  0.002	 35.100	 83.551	 1541.078
86063	 -0.041	  0.063	  0.672	  1.701	  0.897	 -9.556	 -0.005	  0.003	  0.003	 35.100	 83.425	 1555.159
86113	 -0.040	  0.060	  0.666	  1.724	  0.879	 -9.580	 -0.004	  0.004	  0.004	 35.100	 83.323	 1566.578
86163	 -0.039	  0.060	  0.669	  1.725	  0.929	 -9.548	 -0.005	  0.002	  0.004	 35.100	 83.186	 1581.941
86213	 -0.041	  0.058	  0.676	  1.688	  0.901	 -9.530	 -0.004	  0.004	  0.004	 35.100	 83.072	 1594.747
86263	 -0.041	  0.068	  0.674	  1.698	  0.896	 -9.526	 -0.004	  0.003	  0.003	 35.100	 82.959	 1607.461
86313	 -0.041	  0.061	  0.674	  1.720	  0.875	 -9.545	 -0.003	  0.004	  0.005	 35.100	 82.833	 1621.663
86363	 -0.040	  0.060	  0.672	  1.729	  0.915	 -9.554	 -0.004	  0.002	  0.003	 35.100	 82.708	 1635.777
86413	 -0.041	  0.061	  0.676	  1.678	  0.909	 -9.568	 -0.005	  0.002	  0.002	 35.100	 82.606	 1647.313
86463	 -0.043	  0.062	  0.672	  1.731	  0.890	 -9.584	 -0.004	  0.002	  0.003	 35.100	 82.480	 1661.587
86513	 -0.043	  0.060	  0.673	  1.738	  0.903	 -9.567	 -0.003	  0.004	  0.004	 35.100	 82.367	 1674.411
86563	 -0.041	  0.062	  0.672	  1.705	  0.899	 -9.559	 -0.005	  0.004	  0.003	 35.100	 82.241	 1688.735
86613	 -0.041	  0.061	  0.671	  1.683	  0.885	 -9.575	 -0.004	  0.003	  0.003	 35.100	 82.128	 1701.603
86663	 -0.041	  0.063	  0.673	  1.704	  0.885	 -9.558	 -0.005	  0.004	  0.004	 35.100	 82.014	 1714.605
86713	 -0.040	  0.059	  0.674	  1.718	  0.909	 -9.565	 -0.004	  0.003	  0.003	 35.100	 81.911	 1726.372
86763	 -0.040	  0.065	  0.672	  1.741	  0.904	 -9.548	 -0.004	  0.003	  0.004	 35.100	 81.775	 1741.936
86813	 -0.043	  0.062	  0.673	  1.735	  0.917	 -9.592	 -0.004	  0.002	  0.003	 35.100	 81.672	 1753.745
86863	 -0.040	  0.067	  0.674	  1.706	  0.890	 -9.533	 -0.003	  0.001	  0.003	 35.100	 81.547	 1768.099
86913	 -0.041	  0.068	  0.674	  1.738	  0.910	 -9.544	 -0.003	  0.003	  0.004	 35.100	 81.433	 1781.212
86963	 -0.039	  0.058	  0.674	  1.690	  0.916	 -9.538	 -0.005	  0.004	  0.004	 35.000	 81.319	 1794.347
87013	 -0.041	  0.070	  0.675	  1.712	  0.903	 -9.512	 -0.005	  0.001	  0.004	 35.100	 81.206	 1807.389
87062	 -0.041	  0.057	  0.675	  1.731	  0.917	 -9.552	 -0.005	  0.003	  0.005	 35.100	 81.092	 1820.568
87113	 -0.042	  0.060	  0.673	  1.722	  0.932	 -9.602	 -0.005	  0.002	  0.004	 35.100	 80.967	 1835.044
87162	 -0.043	  0.058	  0.675	  1.730	  0.913	 -9.554	 -0.003	  0.003	  0.003	 35.100	 80.853	 1848.270
87212	 -0.040	  0.071	  0.670	  1.699	  0.913	 -9.605	 -0.005	  0.002	  0.004	 35.100	 80.750	 1860.238
87262	 -0.041	  0.064	  0.672	  1.700	  0.913	 -9.568	 -0.004	  0.004	  0.003	 35.100	 80.636	 1873.506
87312	 -0.043	  0.066	  0.670	  1.768	  0.929	 -9.571	 -0.006	  0.002	  0.002	 35.100	 80.534	 1885.397
87362	 -0.042	  0.057	  0.675	  1.720	  0.886	 -9.593	 -0.004	  0.003	  0.004	 35.100	 80.431	 1897.421
87412	 -0.040	  0.067	  0.669	  1.676	  0.893	 -9.602	 -0.000	 -0.002	  0.006	 35.100	 80.329	 1909.347
87462	 -0.043	  0.059	  0.676	  1.776	  0.937	 -9.452	 -0.001	 -0.000	  0.003	 35.100	 80.227	 1921.292
87512	 -0.039	  0.060	  0.673	  1.590	  0.810	 -9.722	 -0.003	  0.007	  0.008	 35.100	 80.136	 1931.963
87562	 -0.041	  0.066	  0.675	  1.606	  1.013	 -9.627	  0.014	 -0.014	  0.012	 35.000	 80.044	 1942.767
87612	 -0.038	  0.064	  0.672	  1.796	  1.040	 -9.402	 -0.004	  0.013	  0.004	 35.000	 79.973	 1951.115
87662	 -0.040	  0.062	  0.672	  1.711	  0.864	 -9.577	 -0.010	  0.004	  0.001	 35.100	 79.896	 1960.177
87712	 -0.039	  0.060	  0.674	  1.655	  0.872	 -9.594	  0.004	 -0.003	  0.008	 35.100	 79.840	 1966.775
87762	 -0.043	  0.063	  0.673	  1.686	  0.973	 -9.554	 -0.004	  0.004	  0.001	 35.100	 79.763	 1975.856
87812	 -0.043	  0.059	  0.675	  1.743	  0.908	 -9.502	 -0.004	  0.003	  0.001	 35.100	 79.703	 1982.939
87862	 -0.041	  0.070	  0.675	  1.711	  0.938	 -9.564	 -0.005	  0.003	  0.004	 35.100	 79.657	 1988.374
87912	 -0.043	  0.067	  0.672	  1.686	  0.897	 -9.609	 -0.003	  0.000	  0.002	 35.100	 79.623	 1992.394
87962	 -0.040	  0.064	  0.671	  1.696	  0.900	 -9.519	 -0.005	  0.007	  0.004	 35.100	 79.566	 1999.136
88012	 -0.038	  0.066	  0.679	  1.702	  0.898	 -9.559	 -0.003	  0.004	  0.005	 35.100	 79.544	 2001.741
88062	 -0.042	  0.059	  0.675	  1.694	  0.858	 -9.600	 -0.007	  0.005	  0.004	 35.100	 79.509	 2005.885
88112	 -0.043	  0.066	  0.676	  1.696	  0.889	 -9.550	 -0.003	  0.000	  0.005	 35.100	 79.464	 2011.218
88162	 -0.040	  0.059	  0.674	  1.735	  0.880	 -9.569	 -0.003	  0.005	  0.003	 35.100	 79.441	 2013.944
88212	 -0.040	  0.058	  0.671	  1.718	  0.885	 -9.541	 -0.003	  0.001	  0.003	 35.100	 79.418	 2016.672
88262	 -0.043	  0.060	  0.673	  1.703	  0.898	 -9.554	 -0.005	  0.002	  0.004	 35.100	 79.381	 2021.062
88312	 -0.041	  0.061	  0.673	  1.707	  0.915	 -9.595	 -0.005	  0.004	  0.003	 35.100	 79.350	 2024.742
88362	 -0.045	  0.059	  0.675	  1.714	  0.954	 -9.581	 -0.004	  0.003	  0.003	 35.100	 79.339	 2026.048
88412	 -0.041	  0.068	  0.674	  1.708	  0.913	 -9.584	 -0.002	  0.001	  0.005	 35.100	 79.305	 2030.087
88462	 -0.043	  0.063	  0.668	  1.728	  0.904	 -9.584	 -0.005	  0.004	  0.002	 35.100	 79.267	 2034.603
88512	 -0.040	  0.068	  0.672	  1.720	  0.898	 -9.538	 -0.003	  0.003	  0.004	 35.000	 79.267	 2034.603
88562	 -0.043	  0.060	  0.673	  1.728	  0.876	 -9.567	 -0.004	  0.002	  0.003	 35.100	 79.248	 2036.862
88612	 -0.040	  0.062	  0.668	  1.729	  0.913	 -9.540	 -0.004	  0.003	  0.004	 35.100	 79.225	 2039.597
88662	 -0.042	  0.058	  0.676	  1.684	  0.915	 -9.553	 -0.004	  0.003	  0.003	 35.100	 79.228	 2039.241
88712	 -0.041	  0.063	  0.674	  1.721	  0.921	 -9.545	 -0.003	  0.004	  0.004	 35.000	 79.210	 2041.382
88762	 -0.043	  0.060	  0.676	  1.723	  0.893	 -9.538	 -0.005	  0.004	  0.004	 35.100	 79.213	 2041.025
88812	 -0.042	  0.059	  0.668	  1.684	  0.930	 -9.543	 -0.004	  0.003	  0.004	 35.100	 79.225	 2039.597
88862	 -0.042	  0.059	  0.672	  1.715	  0.906	 -9.579	 -0.006	  0.002	  0.003	 35.100	 79.236	 2038.289
88912	 -0.040	  0.068	  0.675	  1.680	  0.899	 -9.587	 -0.004	  0.001	  0.003	 35.100	 79.270	 2034.247
88962	 -0.041	  0.060	  0.673	  1.715	  0.895	 -9.626	 -0.004	  0.003	  0.002	 35.100	 79.293	 2031.512
89012	 -0.042	  0.058	  0.677	  1.752	  0.898	 -9.557	 -0.005	  0.001	  0.003	 35.100	 79.305	 2030.087
89062	 -0.041	  0.061	  0.675	  1.715	  0.917	 -9.588	 -0.004	  0.002	  0.004	 35.100	 79.339	 2026.048
89112	 -0.040	  0.067	  0.672	  1.706	  0.917	 -9.565	 -0.003	  0.004	  0.003	 35.000	 79.358	 2023.791
89162	 -0.041	  0.061	  0.673	  1.690	  0.891	 -9.604	 -0.004	  0.004	  0.004	 35.100	 79.396	 2019.282
89212	 -0.041	  0.062	  0.674	  1.712	  0.888	 -9.550	 -0.003	  0.003	  0.003	 35.100	 79.407	 2017.977
89262	 -0.039	  0.064	  0.672	  1.690	  0.888	 -9.552	 -0.004	  0.002	  0.004	 35.100	 79.441	 2013.944
89312	 -0.043	  0.059	  0.675	  1.726	  0.923	 -9.521	 -0.005	  0.003	  0.004	 35.100	 79.464	 2011.218
89362	 -0.041	  0.062	  0.669	  1.723	  0.912	 -9.555	 -0.005	  0.005	  0.003	 35.100	 79.461	 2011.573
89412	 -0.041	  0.062	  0.678	  1.717	  0.893	 -9.533	 -0.005	  0.002	  0.003	 35.100	 79.498	 2007.188
89462	 -0.041	  0.065	  0.675	  1.713	  0.893	 -9.551	 -0.005	  0.001	  0.004	 35.000	 79.509	 2005.885
89512	 -0.040	  0.059	  0.673	  1.706	  0.823	 -9.612	 -0.007	  0.003	  0.003	 35.100	 79.532	 2003.162
89562	 -0.041	  0.067	  0.677	  1.615	  0.827	 -9.698	  0.003	  0.003	  0.010	 35.100	 79.552	 2000.794
89612	 -0.040	  0.059	  0.671	  1.760	  0.836	 -9.539	  0.003	  0.002	  0.010	 35.100	 79.566	 1999.136
89662	 -0.040	  0.063	  0.676	  1.712	  0.927	 -9.557	 -0.007	  0.002	  0.003	 35.100	 79.589	 1996.415
89712	 -0.040	  0.060	  0.674	  1.690	  0.890	 -9.517	 -0.004	  0.001	  0.006	 35.100	 79.623	 1992.394
89762	 -0.041	  0.068	  0.670	  1.690	  0.865	 -9.599	 -0.007	  0.007	  0.003	 35.100	 79.635	 1990.974
89812	 -0.041	  0.061	  0.673	  1.707	  0.916	 -9.554	 -0.003	  0.002	  0.004	 35.000	 79.654	 1988.729
89862	 -0.041	  0.065	  0.674	  1.691	  0.895	 -9.561	 -0.003	  0.003	  0.003	 35.100	 79.688	 1984.711
89912	 -0.039	  0.060	  0.664	  1.739	  0.907	 -9.526	 -0.003	  0.004	  0.004	 35.100	 79.714	 1981.641
89962	 -0.042	  0.058	  0.676	  1.725	  0.944	 -9.539	 -0.004	  0.005	  0.005	 35.100	 79.737	 1978.925
90012	 -0.043	  0.061	  0.673	  1.712	  0.918	 -9.546	 -0.005	  0.002	  0.004	 35.000	 79.768	 1975.266
90062	 -0.043	  0.059	  0.675	  1.722	  0.915	 -9.522	 -0.004	  0.003	  0.004	 35.100	 79.817	 1969.486
90112	 -0.041	  0.065	  0.675	  1.720	  0.898	 -9.545	 -0.003	  0.004	  0.005	 35.100	 79.817	 1969.486
90162	 -0.041	  0.062	  0.674	  1.711	  0.926	 -9.568	 -0.003	 -0.001	  0.003	 35.100	 79.862	 1964.183
90214	 -0.040	  0.060	  0.676	  1.722	  0.891	 -9.575	 -0.004	  0.004	  0.004	 35.100	 79.885	 1961.472
90262	 -0.041	  0.061	  0.669	  1.733	  0.906	 -9.562	 -0.004	  0.005	  0.003	 35.100	 79.896	 1960.177
90313	 -0.043	  0.062	  0.674	  1.709	  0.900	 -9.513	 -0.006	  0.004	  0.003	 35.100	 79.942	 1954.761
90362	 -0.041	  0.067	  0.674	  1.708	  0.898	 -9.600	 -0.004	  0.005	  0.001	 35.100	 79.976	 1950.761
90413	 -0.042	  0.060	  0.669	  1.715	  0.875	 -9.558	 -0.003	  0.003	  0.004	 35.000	 80.007	 1947.115
90463	 -0.041	  0.062	  0.674	  1.710	  0.888	 -9.559	 -0.004	  0.004	  0.003	 35.100	 80.044	 1942.767
90513	 -0.041	  0.061	  0.669	  1.721	  0.881	 -9.552	 -0.004	  0.003	  0.004	 35.100	 80.067	 1940.064
90563	 -0.041	  0.062	  0.673	  1.705	  0.914	 -9.556	 -0.005	  0.004	  0.003	 35.100	 80.109	 1935.132
90613	 -0.040	  0.057	  0.675	  1.681	  0.915	 -9.568	 -0.003	  0.003	  0.004	 35.100	 80.136	 1931.963
90663	 -0.043	  0.060	  0.672	  1.708	  0.925	 -9.584	 -0.003	  0.004	  0.004	 35.100	 80.181	 1926.684
90713	 -0.043	  0.059	  0.670	  1.712	  0.912	 -9.565	 -0.002	  0.002	  0.004	 35.100	 80.204	 1923.987
90763	 -0.041	  0.062	  0.670	  1.731	  0.898	 -9.514	 -0.004	  0.002	  0.003	 35.100	 80.238	 1920.003
90813	 -0.042	  0.058	  0.674	  1.711	  0.910	 -9.538	 -0.002	  0.001	  0.005	 35.100	 80.272	 1916.020
90863	 -0.045	  0.061	  0.673	  1.709	  0.901	 -9.546	 -0.004	  0.001	  0.002	 35.100	 80.306	 1912.039
90913	 -0.042	  0.060	  0.673	  1.711	  0.903	 -9.545	 -0.002	  0.001	  0.004	 35.100	 80.352	 1906.657
90963	 -0.043	  0.066	  0.674	  1.729	  0.896	 -9.566	 -0.005	  0.003	  0.003	 35.000	 80.397	 1901.394
91013	 -0.041	  0.063	  0.670	  1.722	  0.914	 -9.560	 -0.004	  0.003	  0.003	 35.100	 80.420	 1898.707
91063	 -0.041	  0.065	  0.674	  1.728	  0.931	 -9.557	 -0.004	  0.004	  0.003	 35.100	 80.466	 1893.332
91113	 -0.040	  0.062	  0.673	  1.697	  0.914	 -9.545	 -0.004	  0.002	  0.003	 35.100	 80.500	 1889.364
91163	 -0.040	  0.058	  0.675	  1.692	  0.920	 -9.541	 -0.005	  0.001	  0.004	 35.100	 80.534	 1885.397
91213	 -0.041	  0.059	  0.672	  1.687	  0.926	 -9.578	 -0.003	  0.002	  0.003	 35.100	 80.579	 1880.148
91263	 -0.042	  0.059	  0.676	  1.717	  0.911	 -9.570	 -0.003	  0.003	  0.003	 35.000	 80.614	 1876.069
91313	 -0.041	  0.059	  0.674	  1.733	  0.928	 -9.562	 -0.005	  0.002	  0.004	 35.100	 80.648	 1872.108
91363	 -0.041	  0.061	  0.670	  1.691	  0.908	 -9.566	 -0.004	  0.002	  0.004	 35.100	 80.671	 1869.430
91413	 -0.043	  0.058	  0.673	  1.712	  0.911	 -9.558	 -0.006	  0.003	  0.004	 35.100	 80.716	 1864.192
91463	 -0.041	  0.069	  0.674	  1.719	  0.899	 -9.544	 -0.003	  0.002	  0.005	 35.100	 80.750	 1860.238
91513	 -0.043	  0.060	  0.675	  1.727	  0.911	 -9.601	 -0.005	  0.003	  0.003	 35.100	 80.784	 1856.286
91563	 -0.043	  0.060	  0.672	  1.740	  0.896	 -9.568	 -0.002	  0.002	  0.004	 35.000	 80.815	 1852.683
91613	 -0.043	  0.065	  0.673	  1.742	  0.915	 -9.550	 -0.005	  0.005	  0.003	 35.100	 80.853	 1848.270
91663	 -0.041	  0.063	  0.675	  1.716	  0.926	 -9.580	 -0.004	  0.006	  0.005	 35.000	 80.895	 1843.395
91713	 -0.043	  0.060	  0.675	  1.709	  0.894	 -9.551	 -0.005	  0.003	  0.004	 35.100	 80.944	 1837.711
91763	 -0.042	  0.057	  0.672	  1.692	  0.896	 -9.556	 -0.003	  0.004	  0.004	 35.000	 80.978	 1833.769
91813	 -0.041	  0.067	  0.676	  1.722	  0.892	 -9.525	 -0.004	  0.002	  0.003	 35.000	 80.997	 1831.567
91863	 -0.041	  0.063	  0.670	  1.728	  0.909	 -9.540	 -0.004	  0.003	  0.004	 35.100	 81.043	 1826.239
91913	 -0.042	  0.057	  0.676	  1.712	  0.903	 -9.572	 -0.007	  0.004	  0.002	 35.000	 81.077	 1822.303
91963	 -0.039	  0.061	  0.669	  1.715	  0.913	 -9.545	 -0.004	  0.003	  0.004	 35.100	 81.122	 1817.098
92013	 -0.041	  0.059	  0.671	  1.718	  0.917	 -9.584	 -0.005	  0.001	  0.004	 35.100	 81.149	 1813.976
92063	 -0.043	  0.057	  0.676	  1.714	  0.899	 -9.543	 -0.004	  0.003	  0.003	 35.000	 81.194	 1808.775
92113	 -0.042	  0.058	  0.676	  1.750	  0.882	 -9.584	 -0.004	  0.004	  0.003	 35.100	 81.240	 1803.463
92163	 -0.043	  0.063	  0.672	  1.703	  0.913	 -9.547	 -0.003	  0.002	  0.004	 35.000	 81.270	 1800.000
92213	 -0.041	  0.069	  0.675	  1.732	  0.900	 -9.553	 -0.004	  0.005	  0.003	 35.000	 81.293	 1797.346
92263	 -0.043	  0.059	  0.672	  1.701	  0.905	 -9.577	 -0.003	  0.002	  0.005	 35.100	 81.342	 1791.695
92313	 -0.043	  0.059	  0.670	  1.709	  0.902	 -9.537	 -0.003	  0.003	  0.004	 35.100	 81.376	 1787.776
92363	 -0.043	  0.060	  0.675	  1.701	  0.904	 -9.588	 -0.005	  0.002	  0.003	 35.100	 81.410	 1783.859
92413	 -0.041	  0.059	  0.669	  1.700	  0.920	 -9.589	 -0.003	  0.003	  0.004	 35.100	 81.456	 1778.564
92462	 -0.041	  0.061	  0.674	  1.730	  0.928	 -9.569	 -0.004	  0.000	  0.003	 35.000	 81.490	 1774.652
92512	 -0.041	  0.060	  0.676	  1.711	  0.894	 -9.543	 -0.002	  0.003	  0.005	 35.100	 81.524	 1770.742
92562	 -0.043	  0.061	  0.677	  1.705	  0.917	 -9.562	 -0.002	  0.002	  0.002	 35.100	 81.555	 1767.179
92612	 -0.039	  0.060	  0.669	  1.726	  0.929	 -9.574	 -0.004	 -0.001	  0.005	 35.000	 81.600	 1762.009
92662	 -0.041	  0.062	  0.669	  1.719	  0.915	 -9.545	 -0.002	  0.002	  0.003	 35.100	 81.650	 1756.268
92712	 -0.041	  0.062	  0.675	  1.713	  0.923	 -9.547	 -0.003	  0.004	  0.004	 35.100	 81.672	 1753.745
92763	 -0.040	  0.059	  0.674	  1.746	  0.900	 -9.555	 -0.005	  0.003	  0.003	 35.100	 81.718	 1748.468
92812	 -0.042	  0.057	  0.676	  1.698	  0.902	 -9.558	 -0.006	  0.004	  0.004	 35.100	 81.741	 1745.832
92862	 -0.043	  0.063	  0.675	  1.714	  0.892	 -9.564	 -0.005	  0.003	  0.002	 35.000	 81.783	 1741.021
92912	 -0.041	  0.060	  0.670	  1.702	  0.920	 -9.562	 -0.004	  0.002	  0.003	 35.100	 81.820	 1736.783
92962	 -0.041	  0.066	  0.673	  1.731	  0.881	 -9.541	 -0.005	  0.004	  0.004	 35.000	 81.862	 1731.977
93012	 -0.043	  0.061	  0.677	  1.704	  0.921	 -9.552	 -0.004	  0.003	  0.003	 35.000	 81.896	 1728.087
93062	 -0.040	  0.058	  0.672	  1.712	  0.879	 -9.571	 -0.003	  0.002	  0.004	 35.000	 81.931	 1724.086
93112	 -0.043	  0.059	  0.668	  1.696	  0.914	 -9.530	 -0.003	  0.002	  0.004	 35.000	 81.965	 1720.201
93162	 -0.041	  0.064	  0.674	  1.707	  0.914	 -9.535	 -0.004	  0.003	  0.004	 35.000	 81.999	 1716.318
93212	 -0.042	  0.059	  0.675	  1.693	  0.920	 -9.580	 -0.004	  0.003	  0.004	 35.000	 82.033	 1712.437
93262	 -0.040	  0.057	  0.674	  1.730	  0.886	 -9.545	 -0.004	  0.003	  0.004	 35.000	 82.079	 1707.188
93312	 -0.041	  0.064	  0.672	  1.726	  0.928	 -9.542	 -0.005	  0.002	  0.003	 35.000	 82.101	 1704.681
93362	 -0.041	  0.061	  0.675	  1.720	  0.888	 -9.558	 -0.003	  0.002	  0.004	 35.100	 82.135	 1700.805
93412	 -0.040	  0.059	  0.673	  1.721	  0.930	 -9.537	 -0.004	  0.001	  0.004	 35.100	 82.173	 1696.476
93462	 -0.044	  0.054	  0.674	  1.702	  0.904	 -9.552	 -0.003	  0.004	  0.004	 35.000	 82.196	 1693.857
93512	 -0.043	  0.064	  0.676	  1.705	  0.908	 -9.571	 -0.004	  0.004	  0.002	 35.100	 82.241	 1688.735
93562	 -0.041	  0.067	  0.674	  1.722	  0.881	 -9.557	 -0.004	  0.003	  0.004	 35.000	 82.276	 1684.753
93612	 -0.041	  0.061	  0.672	  1.709	  0.890	 -9.580	 -0.005	  0.001	  0.003	 35.000	 82.295	 1682.593
93662	 -0.043	  0.057	  0.676	  1.718	  0.919	 -9.566	 -0.003	  0.001	  0.004	 35.000	 82.329	 1678.728
93712	 -0.041	  0.061	  0.672	  1.692	  0.900	 -9.546	 -0.003	  0.001	  0.004	 35.000	 82.363	 1674.865
93762	 -0.042	  0.059	  0.675	  1.683	  0.917	 -9.551	 -0.003	  0.003	  0.003	 35.000	 82.412	 1669.302
93812	 -0.041	  0.060	  0.670	  1.718	  0.886	 -9.572	 -0.005	  0.002	  0.004	 35.100	 82.435	 1666.692
93862	 -0.043	  0.061	  0.674	  1.715	  0.877	 -9.547	 -0.003	  0.003	  0.004	 35.000	 82.477	 1661.928
93912	 -0.040	  0.068	  0.673	  1.690	  0.890	 -9.557	 -0.004	  0.003	  0.003	 35.000	 82.523	 1656.713
93962	 -0.043	  0.060	  0.676	  1.712	  0.913	 -9.532	 -0.004	  0.003	  0.004	 35.000	 82.591	 1649.011
94012	 -0.041	  0.058	  0.673	  1.711	  0.883	 -9.522	 -0.003	  0.002	  0.003	 35.000	 82.636	 1643.919
94062	 -0.041	  0.069	  0.670	  1.714	  0.921	 -9.563	 -0.004	  0.002	  0.003	 35.100	 82.705	 1636.116
94112	 -0.041	  0.066	  0.677	  1.718	  0.908	 -9.569	 -0.005	  0.003	  0.004	 35.100	 82.776	 1628.096
94162	 -0.043	  0.064	  0.675	  1.716	  0.907	 -9.535	 -0.005	  0.005	  0.003	 35.000	 82.841	 1620.760
94212	 -0.043	  0.064	  0.666	  1.700	  0.891	 -9.545	 -0.004	  0.000	  0.003	 35.000	 82.921	 1611.741
94262	 -0.043	  0.062	  0.675	  1.729	  0.912	 -9.583	 -0.004	  0.003	  0.003	 35.000	 82.989	 1604.084
94312	 -0.043	  0.061	  0.672	  1.692	  0.907	 -9.578	 -0.002	  0.003	  0.004	 35.100	 83.038	 1598.570
94362	 -0.043	  0.059	  0.670	  1.707	  0.913	 -9.568	 -0.004	  0.004	  0.004	 35.000	 83.126	 1588.678
94412	 -0.043	  0.060	  0.675	  1.700	  0.903	 -9.541	 -0.003	  0.003	  0.003	 35.000	 83.171	 1583.624
94462	 -0.042	  0.060	  0.673	  1.697	  0.918	 -9.547	 -0.005	  0.004	  0.003	 35.000	 83.240	 1575.882
94512	 -0.045	  0.061	  0.673	  1.714	  0.909	 -9.540	 -0.004	  0.004	  0.005	 35.000	 83.308	 1568.259
94562	 -0.043	  0.060	  0.674	  1.724	  0.928	 -9.580	 -0.004	  0.003	  0.003	 35.000	 83.380	 1560.195
94612	 -0.043	  0.066	  0.677	  1.710	  0.904	 -9.517	 -0.004	  0.000	  0.005	 35.000	 83.445	 1552.922
94662	 -0.043	  0.061	  0.674	  1.705	  0.905	 -9.578	 -0.004	  0.004	  0.003	 35.000	 83.490	 1547.892
94712	 -0.043	  0.062	  0.668	  1.699	  0.917	 -9.589	 -0.003	  0.003	  0.005	 35.000	 83.558	 1540.296
94762	 -0.043	  0.063	  0.675	  1.705	  0.897	 -9.566	 -0.004	  0.003	  0.003	 35.000	 83.604	 1535.162
94812	 -0.043	  0.062	  0.673	  1.719	  0.936	 -9.548	 -0.005	  0.000	  0.004	 35.100	 83.676	 1527.132
94862	 -0.045	  0.062	  0.674	  1.713	  0.950	 -9.576	 -0.005	  0.002	  0.004	 35.000	 83.729	 1521.228
94912	 -0.043	  0.060	  0.674	  1.691	  0.917	 -9.549	 -0.003	  0.002	  0.004	 35.000	 83.786	 1514.881
94962	 -0.043	  0.067	  0.674	  1.721	  0.900	 -9.585	 -0.004	  0.003	  0.003	 35.000	 83.854	 1507.318
95012	 -0.039	  0.062	  0.669	  1.717	  0.918	 -9.560	 -0.005	  0.003	  0.003	 35.000	 83.911	 1500.982
95062	 -0.042	  0.057	  0.674	  1.727	  0.910	 -9.574	 -0.005	  0.005	  0.003	 35.000	 83.957	 1495.874
95112	 -0.041	  0.061	  0.673	  1.692	  0.923	 -9.550	 -0.005	  0.002	  0.003	 35.100	 84.051	 1485.445
95162	 -0.042	  0.060	  0.670	  1.722	  0.904	 -9.603	 -0.005	  0.003	  0.004	 35.000	 84.082	 1482.009
95212	 -0.042	  0.056	  0.675	  1.692	  0.921	 -9.530	 -0.004	  0.002	  0.004	 35.000	 84.139	 1475.695
95262	 -0.043	  0.064	  0.666	  1.692	  0.880	 -9.559	 -0.004	  0.001	  0.004	 35.000	 84.196	 1469.386
95312	 -0.041	  0.063	  0.672	  1.689	  0.926	 -9.556	 -0.004	  0.000	  0.003	 35.000	 84.241	 1464.408
95362	 -0.041	  0.067	  0.674	  1.713	  0.896	 -9.571	 -0.004	  0.002	  0.003	 35.100	 84.321	 1455.568
95412	 -0.043	  0.060	  0.668	  1.704	  0.933	 -9.501	 -0.005	  0.003	  0.005	 35.000	 84.340	 1453.470
95462	 -0.041	  0.062	  0.673	  1.729	  0.883	 -9.555	 -0.004	  0.004	  0.004	 35.000	 84.412	 1445.523
95512	 -0.041	  0.063	  0.675	  1.714	  0.907	 -9.539	 -0.004	  0.001	  0.004	 35.000	 84.469	 1439.238
95562	 -0.041	  0.059	  0.668	  1.710	  0.893	 -9.515	 -0.004	  0.002	  0.003	 35.000	 84.515	 1434.170
95612	 -0.043	  0.060	  0.668	  1.738	  0.915	 -9.565	 -0.003	  0.002	  0.004	 35.000	 84.560	 1429.215
95662	 -0.042	  0.060	  0.672	  1.708	  0.907	 -9.548	 -0.004	  0.002	  0.004	 35.000	 84.606	 1424.152
95712	 -0.041	  0.067	  0.677	  1.731	  0.937	 -9.527	 -0.003	  0.003	  0.004	 35.000	 84.662	 1417.995
95763	 -0.042	  0.057	  0.674	  1.712	  0.896	 -9.547	 -0.004	  0.004	  0.004	 35.000	 84.719	 1411.732
95812	 -0.040	  0.071	  0.674	  1.693	  0.923	 -9.554	 -0.004	  0.002	  0.004	 35.000	 84.765	 1406.681
95863	 -0.040	  0.066	  0.669	  1.707	  0.888	 -9.520	 -0.003	  0.004	  0.004	 35.000	 84.818	 1400.866
95912	 -0.043	  0.061	  0.672	  1.729	  0.921	 -9.555	 -0.005	  0.005	  0.003	 35.000	 84.856	 1396.699
95963	 -0.041	  0.065	  0.673	  1.708	  0.908	 -9.550	 -0.004	  0.002	  0.004	 35.000	 84.913	 1390.454
96013	 -0.041	  0.061	  0.673	  1.716	  0.882	 -9.584	 -0.004	  0.001	  0.003	 35.000	 84.947	 1386.731
96063	 -0.042	  0.060	  0.675	  1.707	  0.898	 -9.526	 -0.003	  0.002	  0.003	 35.000	 85.015	 1379.290
96113	 -0.043	  0.069	  0.674	  1.714	  0.923	 -9.559	 -0.004	  0.002	  0.002	 35.000	 85.050	 1375.462
96163	 -0.041	  0.062	  0.676	  1.713	  0.902	 -9.543	 -0.004	  0.004	  0.005	 35.000	 85.118	 1368.033
96213	 -0.041	  0.063	  0.673	  1.719	  0.907	 -9.583	 -0.004	  0.003	  0.003	 35.000	 85.163	 1363.119
96263	 -0.043	  0.058	  0.674	  1.706	  0.908	 -9.561	 -0.004	  0.002	  0.004	 35.000	 85.197	 1359.409
96313	 -0.043	  0.063	  0.675	  1.706	  0.915	 -9.566	 -0.004	  0.004	  0.004	 35.000	 85.243	 1354.392
96363	 -0.043	  0.060	  0.674	  1.686	  0.885	 -9.506	 -0.004	  0.002	  0.002	 35.000	 85.308	 1347.308
96413	 -0.045	  0.060	  0.673	  1.732	  0.898	 -9.539	 -0.003	  0.004	  0.005	 35.000	 85.357	 1341.972
96463	 -0.043	  0.060	  0.674	  1.710	  0.921	 -9.555	 -0.004	  0.003	  0.003	 35.000	 85.391	 1338.273
96513	 -0.043	  0.063	  0.673	  1.708	  0.887	 -9.551	 -0.005	  0.004	  0.004	 35.000	 85.448	 1332.074
96563	 -0.041	  0.061	  0.674	  1.726	  0.886	 -9.533	 -0.004	  0.002	  0.004	 35.000	 85.505	 1325.879
96613	 -0.038	  0.070	  0.674	  1.700	  0.923	 -9.548	 -0.004	  0.001	  0.004	 35.000	 85.550	 1320.992
96663	 -0.041	  0.062	  0.674	  1.709	  0.923	 -9.568	 -0.003	  0.002	  0.004	 35.000	 85.596	 1316.000
96713	 -0.043	  0.062	  0.676	  1.712	  0.915	 -9.527	 -0.003	  0.002	  0.004	 35.000	 85.641	 1311.119
96763	 -0.043	  0.061	  0.673	  1.713	  0.917	 -9.561	 -0.005	  0.001	  0.004	 35.000	 85.687	 1306.133
96813	 -0.041	  0.068	  0.675	  1.692	  0.917	 -9.529	 -0.004	  0.002	  0.004	 35.000	 85.740	 1300.393
96863	 -0.040	  0.063	  0.673	  1.715	  0.893	 -9.557	 -0.004	  0.003	  0.003	 35.000	 85.789	 1295.088
96913	 -0.040	  0.057	  0.666	  1.695	  0.917	 -9.540	 -0.004	  0.003	  0.004	 35.000	 85.831	 1290.546
96963	 -0.042	  0.069	  0.676	  1.688	  0.902	 -9.568	 -0.003	  0.004	  0.003	 35.000	 85.895	 1283.628
97013	 -0.041	  0.064	  0.676	  1.702	  0.911	 -9.575	 -0.003	  0.003	  0.004	 35.000	 85.926	 1280.279
97063	 -0.041	  0.060	  0.676	  1.731	  0.899	 -9.557	 -0.003	  0.004	  0.001	 35.000	 85.968	 1275.744
97113	 -0.041	  0.061	  0.673	  1.716	  0.902	 -9.567	 -0.004	  0.002	  0.004	 35.000	 86.017	 1270.458
97163	 -0.041	  0.062	  0.670	  1.714	  0.893	 -9.577	 -0.004	  0.002	  0.004	 35.000	 86.074	 1264.312
97213	 -0.043	  0.066	  0.672	  1.690	  0.924	 -9.549	 -0.002	  0.003	  0.004	 35.000	 86.119	 1259.463
97263	 -0.041	  0.059	  0.668	  1.723	  0.898	 -9.552	 -0.003	  0.005	  0.003	 35.000	 86.165	 1254.511
97313	 -0.043	  0.055	  0.675	  1.722	  0.903	 -9.585	 -0.004	  0.004	  0.004	 35.000	 86.211	 1249.561
97363	 -0.043	  0.057	  0.674	  1.703	  0.903	 -9.531	 -0.004	  0.003	  0.004	 35.000	 86.267	 1243.539
97413	 -0.043	  0.060	  0.674	  1.691	  0.900	 -9.560	 -0.004	  0.004	  0.003	 35.000	 86.313	 1238.596
97463	 -0.042	  0.060	  0.676	  1.702	  0.891	 -9.568	 -0.004	  0.001	  0.005	 35.000	 86.355	 1234.086
97513	 -0.041	  0.058	  0.674	  1.691	  0.941	 -9.550	 -0.004	 -0.000	  0.002	 35.000	 86.404	 1228.828
97563	 -0.045	  0.059	  0.672	  1.722	  0.907	 -9.535	 -0.003	  0.002	  0.005	 35.000	 86.461	 1222.714
97613	 -0.043	  0.060	  0.678	  1.712	  0.894	 -9.567	 -0.004	  0.002	  0.003	 35.000	 86.495	 1219.070
97663	 -0.041	  0.061	  0.673	  1.745	  0.904	 -9.545	 -0.004	  0.002	  0.004	 35.000	 86.537	 1214.571
97713	 -0.041	  0.061	  0.674	  1.717	  0.902	 -9.546	 -0.003	  0.002	  0.004	 35.000	 86.586	 1209.326
97763	 -0.043	  0.058	  0.675	  1.731	  0.893	 -9.504	 -0.002	  0.003	  0.004	 35.000	 86.628	 1204.833
97813	 -0.043	  0.061	  0.672	  1.709	  0.901	 -9.548	 -0.005	  0.005	  0.003	 35.000	 86.662	 1201.197
97863	 -0.041	  0.063	  0.673	  1.686	  0.945	 -9.510	 -0.004	  0.001	  0.004	 35.000	 86.734	 1193.503
97913	 -0.043	  0.060	  0.674	  1.741	  0.896	 -9.594	 -0.006	  0.002	  0.003	 35.000	 86.765	 1190.193
97963	 -0.043	  0.058	  0.666	  1.721	  0.879	 -9.588	 -0.001	  0.003	  0.003	 35.000	 86.810	 1185.391
98013	 -0.041	  0.061	  0.670	  1.724	  0.897	 -9.550	 -0.005	  0.001	  0.003	 35.000	 86.859	 1180.165
98062	 -0.044	  0.056	  0.673	  1.674	  0.921	 -9.559	 -0.003	  0.002	  0.005	 35.000	 86.913	 1174.409
98112	 -0.043	  0.057	  0.669	  1.720	  0.892	 -9.550	 -0.004	  0.002	  0.004	 35.000	 86.939	 1171.640
98162	 -0.040	  0.067	  0.674	  1.726	  0.895	 -9.563	 -0.004	  0.006	  0.004	 35.000	 86.992	 1165.998
98212	 -0.042	  0.069	  0.672	  1.736	  0.890	 -9.555	 -0.004	  0.003	  0.003	 35.000	 87.042	 1160.678
98263	 -0.042	  0.059	  0.673	  1.700	  0.896	 -9.582	 -0.004	  0.004	  0.003	 35.000	 87.083	 1156.319
98312	 -0.041	  0.061	  0.676	  1.724	  0.898	 -9.558	 -0.003	  0.001	  0.002	 35.000	 87.129	 1151.431
98362	 -0.045	  0.059	  0.669	  1.689	  0.903	 -9.542	 -0.005	  0.004	  0.003	 35.000	 87.174	 1146.652
98412	 -0.043	  0.061	  0.675	  1.712	  0.898	 -9.574	 -0.004	  0.002	  0.004	 35.000	 87.212	 1142.620
98462	 -0.041	  0.060	  0.667	  1.739	  0.904	 -9.549	 -0.003	  0.002	  0.003	 35.000	 87.265	 1136.998
98512	 -0.043	  0.059	  0.673	  1.714	  0.883	 -9.557	 -0.004	  0.004	  0.002	 35.000	 87.311	 1132.123
98562	 -0.042	  0.058	  0.674	  1.695	  0.897	 -9.586	 -0.003	  0.002	  0.004	 35.000	 87.345	 1128.521
98612	 -0.041	  0.059	  0.672	  1.713	  0.905	 -9.536	 -0.002	  0.003	  0.003	 35.000	 87.391	 1123.651
98662	 -0.043	  0.061	  0.672	  1.722	  0.908	 -9.547	 -0.005	  0.002	  0.003	 35.000	 87.448	 1117.620
98712	 -0.043	  0.059	  0.673	  1.690	  0.906	 -9.540	 -0.004	  0.001	  0.005	 35.000	 87.482	 1114.025
98762	 -0.041	  0.060	  0.676	  1.708	  0.888	 -9.579	 -0.003	  0.003	  0.005	 35.000	 87.539	 1108.001
98812	 -0.041	  0.059	  0.668	  1.710	  0.910	 -9.576	 -0.004	  0.002	  0.004	 35.000	 87.584	 1103.249
98862	 -0.042	  0.071	  0.673	  1.713	  0.926	 -9.577	 -0.005	  0.003	  0.003	 35.000	 87.607	 1100.822
98912	 -0.044	  0.055	  0.676	  1.710	  0.906	 -9.527	 -0.004	  0.000	  0.004	 35.000	 87.664	 1094.809
98962	 -0.043	  0.061	  0.669	  1.709	  0.890	 -9.563	 -0.003	  0.003	  0.003	 35.000	 87.732	 1087.641
99012	 -0.041	  0.060	  0.673	  1.702	  0.916	 -9.563	 -0.004	 -0.000	  0.003	 35.000	 87.759	 1084.797
99062	 -0.041	  0.062	  0.666	  1.727	  0.910	 -9.518	 -0.004	  0.004	  0.004	 35.000	 87.812	 1079.218
99112	 -0.043	  0.061	  0.670	  1.709	  0.882	 -9.562	 -0.003	  0.001	  0.004	 35.000	 87.857	 1074.483
99162	 -0.039	  0.063	  0.672	  1.717	  0.898	 -9.547	 -0.005	  0.003	  0.004	 35.000	 87.895	 1070.488
99212	 -0.043	  0.063	  0.677	  1.721	  0.894	 -9.531	 -0.003	  0.002	  0.004	 35.000	 87.952	 1064.497
99262	 -0.041	  0.062	  0.675	  1.711	  0.872	 -9.548	 -0.005	  0.002	  0.004	 35.000	 87.994	 1060.087
99312	 -0.042	  0.060	  0.674	  1.700	  0.925	 -9.570	 -0.003	  0.004	  0.004	 35.000	 88.043	 1054.945
99362	 -0.040	  0.059	  0.672	  1.719	  0.908	 -9.589	 -0.005	  0.004	  0.003	 35.000	 88.085	 1050.540
99412	 -0.041	  0.061	  0.670	  1.709	  0.925	 -9.536	 -0.004	  0.004	  0.004	 35.000	 88.119	 1046.975
99462	 -0.041	  0.060	  0.673	  1.714	  0.909	 -9.599	 -0.004	  0.003	  0.004	 35.000	 88.180	 1040.585
99512	 -0.042	  0.057	  0.668	  1.725	  0.902	 -9.571	 -0.005	  0.002	  0.003	 35.000	 88.210	 1037.444
99562	 -0.040	  0.060	  0.676	  1.698	  0.896	 -9.554	 -0.004	  0.001	  0.004	 35.000	 88.271	 1031.061
99612	 -0.041	  0.060	  0.673	  1.689	  0.923	 -9.546	 -0.005	 -0.001	  0.004	 35.000	 88.313	 1026.670
99662	 -0.043	  0.062	  0.667	  1.702	  0.912	 -9.549	 -0.003	  0.003	  0.004	 35.000	 88.370	 1020.714
99712	 -0.043	  0.064	  0.673	  1.712	  0.917	 -9.529	 -0.004	  0.002	  0.004	 35.000	 88.415	 1016.015
99762	 -0.041	  0.060	  0.673	  1.700	  0.928	 -9.555	 -0.002	  0.004	  0.003	 35.000	 88.449	 1012.467
99812	 -0.045	  0.061	  0.671	  1.724	  0.894	 -9.548	 -0.005	  0.005	  0.002	 35.000	 88.506	 1006.522
99862	 -0.043	  0.059	  0.669	  1.708	  0.913	 -9.534	 -0.003	  0.002	  0.004	 35.000	 88.540	 1002.978
99912	 -0.041	  0.070	  0.676	  1.704	  0.906	 -9.570	 -0.004	  0.003	  0.003	 35.000	 88.586	 998.186
99962	 -0.041	  0.062	  0.676	  1.709	  0.914	 -9.541	 -0.004	  0.001	  0.004	 35.000	 88.646	 991.939
100012	 -0.041	  0.063	  0.669	  1.719	  0.904	 -9.538	 -0.004	  0.004	  0.003	 35.000	 88.692	 987.154
100062	 -0.042	  0.058	  0.670	  1.722	  0.906	 -9.561	 -0.002	  0.003	  0.003	 35.000	 88.722	 984.035
100112	 -0.041	  0.059	  0.676	  1.700	  0.899	 -9.556	 -0.005	  0.003	  0.002	 35.000	 88.791	 976.865
100162	 -0.045	  0.059	  0.672	  1.708	  0.899	 -9.562	 -0.003	  0.004	  0.004	 35.000	 88.836	 972.193
100212	 -0.041	  0.066	  0.674	  1.734	  0.893	 -9.549	 -0.006	  0.002	  0.003	 35.000	 88.893	 966.279
100262	 -0.042	  0.069	  0.675	  1.687	  0.912	 -9.570	 -0.004	  0.001	  0.004	 35.000	 88.939	 961.508
100312	 -0.042	  0.060	  0.670	  1.707	  0.885	 -9.555	 -0.003	  0.003	  0.003	 35.000	 88.984	 956.845
100362	 -0.041	  0.069	  0.675	  1.712	  0.893	 -9.528	 -0.004	  0.004	  0.004	 35.000	 89.030	 952.082
100412	 -0.043	  0.058	  0.672	  1.729	  0.897	 -9.551	 -0.004	  0.004	  0.003	 35.000	 89.087	 946.183
100462	 -0.041	  0.066	  0.674	  1.721	  0.888	 -9.580	 -0.004	  0.002	  0.003	 35.000	 89.144	 940.289
100512	 -0.043	  0.061	  0.674	  1.739	  0.915	 -9.585	 -0.004	  0.003	  0.005	 35.000	 89.181	 936.465
100562	 -0.041	  0.066	  0.676	  1.693	  0.907	 -9.581	 -0.004	  0.002	  0.004	 35.000	 89.235	 930.888
100612	 -0.041	  0.061	  0.672	  1.710	  0.904	 -9.553	 -0.004	  0.004	  0.004	 35.000	 89.292	 925.005
100662	 -0.043	  0.057	  0.675	  1.711	  0.905	 -9.570	 -0.004	  0.002	  0.005	 35.000	 89.341	 919.951
100712	 -0.043	  0.058	  0.670	  1.697	  0.909	 -9.545	 -0.004	  0.006	  0.004	 35.000	 89.379	 916.034
100762	 -0.041	  0.068	  0.675	  1.749	  0.896	 -9.544	 -0.005	  0.003	  0.003	 35.000	 89.432	 910.575
100812	 -0.041	  0.059	  0.672	  1.713	  0.914	 -9.547	 -0.004	  0.003	  0.004	 35.000	 89.477	 905.942
100862	 -0.043	  0.061	  0.670	  1.709	  0.912	 -9.551	 -0.003	  0.002	  0.004	 35.000	 89.534	 900.079
100912	 -0.043	  0.063	  0.673	  1.732	  0.909	 -9.545	 -0.003	  0.004	  0.004	 35.000	 89.576	 895.761
100962	 -0.041	  0.064	  0.673	  1.715	  0.919	 -9.549	 -0.004	  0.002	  0.004	 35.000	 89.622	 891.034
101012	 -0.041	  0.063	  0.675	  1.718	  0.900	 -9.549	 -0.003	  0.004	  0.003	 35.000	 89.679	 885.182
101062	 -0.045	  0.063	  0.673	  1.743	  0.896	 -9.545	 -0.005	  0.004	  0.004	 35.000	 89.739	 879.026
101112	 -0.041	  0.059	  0.673	  1.722	  0.892	 -9.573	 -0.003	  0.003	  0.004	 35.000	 89.796	 873.183
101162	 -0.045	  0.059	  0.674	  1.734	  0.906	 -9.562	 -0.003	  0.003	  0.003	 35.000	 89.827	 870.006
101212	 -0.042	  0.060	  0.668	  1.703	  0.894	 -9.556	 -0.004	  0.004	  0.003	 35.000	 89.895	 863.044
101262	 -0.045	  0.061	  0.673	  1.717	  0.878	 -9.576	 -0.004	  0.003	  0.003	 35.000	 89.940	 858.439
101312	 -0.040	  0.057	  0.673	  1.697	  0.893	 -9.537	 -0.003	  0.001	  0.003	 35.000	 89.997	 852.611
101362	 -0.041	  0.058	  0.673	  1.716	  0.910	 -9.580	 -0.003	  0.004	  0.005	 35.000	 90.058	 846.379
101413	 -0.043	  0.060	  0.670	  1.725	  0.940	 -9.563	 -0.003	  0.004	  0.004	 35.000	 90.088	 843.317
101462	 -0.043	  0.067	  0.674	  1.697	  0.894	 -9.505	 -0.005	  0.004	  0.004	 35.000	 90.160	 835.969
101512	 -0.043	  0.062	  0.677	  1.699	  0.923	 -9.548	 -0.003	  0.002	  0.004	 35.000	 90.206	 831.280
101562	 -0.040	  0.061	  0.671	  1.707	  0.902	 -9.544	 -0.005	  0.003	  0.003	 35.000	 90.248	 827.001
101612	 -0.041	  0.058	  0.672	  1.702	  0.895	 -9.563	 -0.003	  0.004	  0.003	 35.000	 90.293	 822.418
101662	 -0.041	  0.060	  0.672	  1.714	  0.890	 -9.539	 -0.004	  0.002	  0.004	 35.000	 90.350	 816.617
101713	 -0.043	  0.061	  0.673	  1.685	  0.887	 -9.557	 -0.005	  0.001	  0.003	 35.000	 90.396	 811.938
101763	 -0.043	  0.057	  0.668	  1.704	  0.913	 -9.530	 -0.004	  0.004	  0.003	 35.000	 90.453	 806.145
101812	 -0.043	  0.059	  0.672	  1.700	  0.909	 -9.580	 -0.003	  0.003	  0.003	 35.000	 90.509	 800.459
101863	 -0.042	  0.059	  0.676	  1.718	  0.913	 -9.569	 -0.004	  0.001	  0.004	 35.000	 90.555	 795.791
101913	 -0.045	  0.061	  0.675	  1.727	  0.919	 -9.538	 -0.004	  0.005	  0.003	 35.000	 90.601	 791.125
101963	 -0.041	  0.066	  0.677	  1.734	  0.898	 -9.539	 -0.003	  0.003	  0.004	 35.000	 90.657	 785.449
102013	 -0.041	  0.060	  0.672	  1.750	  0.875	 -9.557	 -0.004	  0.001	  0.004	 35.000	 90.714	 779.676
102063	 -0.043	  0.060	  0.669	  1.704	  0.907	 -9.574	 -0.004	  0.001	  0.004	 35.000	 90.760	 775.019
102113	 -0.045	  0.064	  0.669	  1.720	  0.926	 -9.578	 -0.004	  0.003	  0.003	 35.000	 90.783	 772.693
102163	 -0.041	  0.061	  0.677	  1.699	  0.927	 -9.560	 -0.004	  0.004	  0.004	 35.000	 90.851	 765.818
102213	 -0.041	  0.064	  0.673	  1.718	  0.909	 -9.578	 -0.003	  0.003	  0.002	 35.000	 90.896	 761.270
102263	 -0.043	  0.058	  0.675	  1.699	  0.909	 -9.581	 -0.004	  0.003	  0.003	 35.000	 90.957	 755.112
102313	 -0.040	  0.063	  0.673	  1.718	  0.892	 -9.545	 -0.003	  0.002	  0.004	 35.000	 90.988	 751.984
102363	 -0.043	  0.066	  0.675	  1.714	  0.921	 -9.545	 -0.004	  0.004	  0.003	 35.000	 91.044	 746.337
102413	 -0.041	  0.060	  0.675	  1.678	  0.901	 -9.530	 -0.003	  0.001	  0.004	 35.000	 91.090	 741.701
102463	 -0.043	  0.064	  0.673	  1.697	  0.911	 -9.552	 -0.003	  0.004	  0.004	 35.000	 91.147	 735.960
102513	 -0.041	  0.060	  0.676	  1.701	  0.894	 -9.540	 -0.004	  0.004	  0.004	 35.000	 91.181	 732.539
102563	 -0.041	  0.061	  0.674	  1.736	  0.925	 -9.533	 -0.005	  0.004	  0.003	 35.000	 91.227	 727.911
102613	 -0.043	  0.059	  0.674	  1.721	  0.892	 -9.559	 -0.004	  0.003	  0.004	 35.000	 91.283	 722.281
102663	 -0.043	  0.061	  0.670	  1.719	  0.913	 -9.540	 -0.004	  0.004	  0.004	 35.000	 91.329	 717.660
102713	 -0.042	  0.060	  0.670	  1.693	  0.911	 -9.574	 -0.004	  0.003	  0.004	 35.000	 91.390	 711.536
102763	 -0.043	  0.065	  0.670	  1.737	  0.913	 -9.553	 -0.005	  0.002	  0.004	 35.000	 91.431	 707.423
102813	 -0.041	  0.061	  0.674	  1.701	  0.928	 -9.538	 -0.004	  0.003	  0.004	 35.000	 91.466	 703.912
102863	 -0.041	  0.062	  0.672	  1.724	  0.905	 -9.535	 -0.004	  0.001	  0.003	 35.000	 91.519	 698.601
102913	 -0.043	  0.068	  0.676	  1.714	  0.898	 -9.569	 -0.004	  0.000	  0.004	 35.000	 91.568	 693.693
102963	 -0.043	  0.061	  0.676	  1.723	  0.876	 -9.551	 -0.003	  0.004	  0.004	 35.000	 91.614	 689.089
103013	 -0.041	  0.060	  0.672	  1.703	  0.891	 -9.536	 -0.004	  0.003	  0.003	 35.000	 91.659	 684.589
103063	 -0.041	  0.061	  0.674	  1.721	  0.900	 -9.554	 -0.005	  0.003	  0.004	 35.000	 91.693	 681.188
103113	 -0.043	  0.067	  0.674	  1.715	  0.905	 -9.536	 -0.003	  0.004	  0.005	 35.000	 91.750	 675.493
103163	 -0.043	  0.061	  0.675	  1.724	  0.916	 -9.558	 -0.005	  0.005	  0.004	 35.000	 91.796	 670.900
103213	 -0.043	  0.064	  0.675	  1.711	  0.904	 -9.546	 -0.004	  0.000	  0.004	 35.000	 91.830	 667.506
103263	 -0.041	  0.060	  0.672	  1.712	  0.893	 -9.545	 -0.005	  0.002	  0.004	 35.000	 91.875	 663.017
103313	 -0.043	  0.059	  0.674	  1.699	  0.928	 -9.566	 -0.003	  0.003	  0.004	 35.000	 91.921	 658.432
103363	 -0.043	  0.057	  0.675	  1.719	  0.897	 -9.535	 -0.004	  0.003	  0.004	 35.000	 91.978	 652.753
103413	 -0.042	  0.056	  0.673	  1.718	  0.904	 -9.545	 -0.003	  0.003	  0.004	 35.000	 92.023	 648.272
103463	 -0.045	  0.068	  0.674	  1.700	  0.907	 -9.561	 -0.004	  0.003	  0.003	 35.000	 92.076	 642.999
103513	 -0.043	  0.062	  0.674	  1.704	  0.902	 -9.516	 -0.003	  0.004	  0.003	 35.000	 92.114	 639.220
103563	 -0.041	  0.067	  0.676	  1.723	  0.911	 -9.594	 -0.004	  0.003	  0.003	 35.000	 92.160	 634.648
103613	 -0.042	  0.058	  0.675	  1.707	  0.897	 -9.554	 -0.003	  0.004	  0.004	 35.000	 92.205	 630.179
103663	 -0.043	  0.062	  0.673	  1.723	  0.893	 -9.523	 -0.004	  0.003	  0.004	 35.000	 92.240	 626.704
103713	 -0.043	  0.064	  0.672	  1.699	  0.911	 -9.532	 -0.004	  0.002	  0.003	 35.000	 92.297	 621.049
103763	 -0.041	  0.059	  0.670	  1.715	  0.898	 -9.528	 -0.003	  0.001	  0.003	 35.000	 92.327	 618.073
103812	 -0.042	  0.058	  0.674	  1.704	  0.899	 -9.525	 -0.004	  0.003	  0.003	 35.000	 92.376	 613.218
103863	 -0.041	  0.062	  0.673	  1.701	  0.934	 -9.558	 -0.004	  0.004	  0.003	 35.000	 92.422	 608.661
103912	 -0.042	  0.058	  0.676	  1.710	  0.907	 -9.561	 -0.004	  0.003	  0.003	 35.000	 92.441	 606.780
103962	 -0.041	  0.063	  0.673	  1.697	  0.877	 -9.551	 -0.004	  0.003	  0.004	 35.000	 92.501	 600.843
104012	 -0.042	  0.058	  0.670	  1.732	  0.915	 -9.527	 -0.004	  0.003	  0.002	 35.000	 92.543	 596.689
104062	 -0.041	  0.060	  0.670	  1.716	  0.901	 -9.565	 -0.004	  0.003	  0.003	 35.000	 92.577	 593.328
104112	 -0.043	  0.060	  0.666	  1.698	  0.900	 -9.554	 -0.004	  0.002	  0.004	 35.000	 92.615	 589.574
104162	 -0.041	  0.063	  0.673	  1.692	  0.894	 -9.560	 -0.003	  0.003	  0.004	 35.000	 92.672	 583.946
104212	 -0.042	  0.069	  0.674	  1.714	  0.893	 -9.578	 -0.004	  0.002	  0.003	 35.000	 92.714	 579.801
104262	 -0.042	  0.059	  0.672	  1.710	  0.887	 -9.572	 -0.005	  0.001	  0.004	 35.000	 92.752	 576.053
104312	 -0.040	  0.072	  0.673	  1.729	  0.895	 -9.570	 -0.004	  0.004	  0.003	 35.000	 92.797	 571.617
104362	 -0.041	  0.060	  0.672	  1.717	  0.907	 -9.531	 -0.004	  0.004	  0.003	 35.000	 92.832	 568.169
104412	 -0.041	  0.063	  0.667	  1.710	  0.881	 -9.580	 -0.003	  0.002	  0.003	 35.000	 92.877	 563.738
104462	 -0.043	  0.058	  0.674	  1.694	  0.876	 -9.573	 -0.005	  0.004	  0.003	 35.000	 92.923	 559.211
104512	 -0.043	  0.062	  0.674	  1.705	  0.892	 -9.517	 -0.004	  0.002	  0.003	 35.000	 92.957	 555.867
104562	 -0.043	  0.061	  0.676	  1.706	  0.911	 -9.557	 -0.004	  0.003	  0.004	 35.000	 92.991	 552.524
104612	 -0.041	  0.056	  0.675	  1.713	  0.887	 -9.539	 -0.003	  0.003	  0.002	 35.000	 93.025	 549.182
104662	 -0.041	  0.060	  0.674	  1.696	  0.906	 -9.557	 -0.006	  0.004	  0.003	 35.000	 93.059	 545.842
104712	 -0.040	  0.059	  0.672	  1.707	  0.872	 -9.522	 -0.003	  0.003	  0.003	 35.000	 93.101	 541.718
104762	 -0.045	  0.062	  0.673	  1.695	  0.907	 -9.534	 -0.003	  0.003	  0.004	 35.000	 93.150	 536.910
104812	 -0.043	  0.062	  0.670	  1.709	  0.910	 -9.564	 -0.003	  0.003	  0.004	 35.000	 93.173	 534.654
104862	 -0.043	  0.063	  0.672	  1.743	  0.948	 -9.534	 -0.005	  0.003	  0.004	 35.000	 93.203	 531.711
104912	 -0.040	  0.063	  0.672	  1.716	  0.907	 -9.568	 -0.004	  0.002	  0.004	 35.000	 93.237	 528.380
104962	 -0.042	  0.059	  0.673	  1.723	  0.879	 -9.584	 -0.004	  0.001	  0.004	 35.000	 93.275	 524.657
105012	 -0.041	  0.068	  0.675	  1.724	  0.901	 -9.563	 -0.003	  0.005	  0.004	 35.000	 93.298	 522.405
105062	 -0.041	  0.060	  0.673	  1.702	  0.891	 -9.567	 -0.005	  0.001	  0.002	 35.000	 93.355	 516.825
105112	 -0.045	  0.059	  0.667	  1.719	  0.916	 -9.545	 -0.003	  0.003	  0.004	 35.000	 93.389	 513.499
105162	 -0.040	  0.059	  0.676	  1.707	  0.881	 -9.528	  0.000	  0.004	  0.004	 35.000	 93.435	 509.002
105212	 -0.041	  0.067	  0.673	  1.810	  1.001	 -9.394	 -0.011	  0.007	 -0.007	 35.000	 93.469	 505.679
105262	 -0.042	  0.058	  0.676	  1.614	  0.962	 -9.627	 -0.006	  0.005	  0.002	 35.000	 93.545	 498.258
105312	 -0.041	  0.060	  0.674	  1.667	  1.024	 -9.546	  0.010	 -0.008	  0.007	 35.000	 93.636	 489.380
105362	 -0.041	  0.063	  0.672	  1.772	  1.063	 -9.423	  0.002	 -0.001	  0.006	 35.000	 93.715	 481.682
105412	 -0.041	  0.070	  0.673	  1.762	  0.857	 -9.547	 -0.006	  0.006	  0.003	 35.000	 93.795	 473.894
105462	 -0.043	  0.058	  0.675	  1.691	  0.854	 -9.580	 -0.001	  0.002	  0.005	 35.000	 93.879	 465.726
105512	 -0.041	  0.068	  0.674	  1.748	  0.942	 -9.515	 -0.004	  0.002	  0.002	 35.000	 93.936	 460.188
105562	 -0.041	  0.060	  0.669	  1.721	  0.932	 -9.569	 -0.002	  0.003	  0.006	 35.000	 94.011	 452.906
105612	 -0.042	  0.058	  0.674	  1.816	  0.827	 -9.485	 -0.005	 -0.005	  0.005	 35.000	 94.072	 446.990
105662	 -0.043	  0.061	  0.675	  1.619	  1.075	 -9.488	 -0.004	  0.004	  0.005	 35.000	 94.159	 438.560
105712	 -0.042	  0.059	  0.673	  1.580	  0.949	 -9.649	  0.011	 -0.005	  0.009	 35.000	 94.254	 429.364
105762	 -0.042	  0.069	  0.674	  1.817	  0.921	 -9.400	 -0.008	  0.008	 -0.000	 35.000	 94.334	 421.629
105812	 -0.041	  0.062	  0.673	  1.741	  0.909	 -9.570	 -0.011	  0.009	 -0.000	 35.000	 94.425	 412.840
105862	 -0.043	  0.060	  0.673	  1.587	  0.874	 -9.671	 -0.003	 -0.006	  0.006	 35.000	 94.489	 406.665
105912	 -0.043	  0.056	  0.670	  1.701	  0.934	 -9.506	  0.002	  0.004	  0.002	 35.000	 94.569	 398.953
105962	 -0.041	  0.064	  0.669	  1.749	  0.807	 -9.572	 -0.005	  0.007	  0.001	 35.000	 94.653	 390.864
106012	 -0.038	  0.066	  0.673	  1.543	  0.882	 -9.675	  0.000	 -0.002	  0.009	 35.000	 94.717	 384.706
106062	 -0.043	  0.061	  0.668	  1.727	  0.915	 -9.553	 -0.000	 -0.000	  0.001	 35.000	 94.801	 376.632
106112	 -0.042	  0.068	  0.674	  1.693	  0.911	 -9.569	 -0.003	  0.004	  0.004	 35.000	 94.876	 369.430
106162	 -0.045	  0.062	  0.668	  1.662	  0.840	 -9.580	  0.001	  0.001	  0.006	 35.000	 94.960	 361.372
106212	 -0.043	  0.058	  0.675	  1.758	  0.943	 -9.508	 -0.001	 -0.001	  0.002	 35.000	 95.047	 353.036
106262	 -0.043	  0.060	  0.670	  1.742	  0.973	 -9.506	 -0.011	  0.011	 -0.000	 35.000	 95.119	 346.143
106312	 -0.040	  0.064	  0.676	  1.705	  0.917	 -9.573	 -0.007	  0.001	  0.003	 35.000	 95.184	 339.926
106362	 -0.043	  0.062	  0.674	  1.757	  0.925	 -9.531	 -0.003	  0.001	  0.005	 35.000	 95.263	 332.376
106412	 -0.039	  0.063	  0.672	  1.738	  0.837	 -9.582	 -0.005	 -0.006	  0.006	 35.000	 95.332	 325.788
106462	 -0.040	  0.064	  0.677	  1.683	  0.946	 -9.551	  0.005	 -0.006	  0.011	 35.000	 95.415	 317.871
106512	 -0.040	  0.059	  0.671	  1.705	  0.859	 -9.567	 -0.004	  0.008	  0.003	 35.000	 95.495	 310.248
106562	 -0.040	  0.058	  0.676	  1.658	  0.878	 -9.591	 -0.001	  0.006	  0.005	 35.000	 95.559	 304.156
106612	 -0.038	  0.068	  0.673	  1.759	  0.876	 -9.575	 -0.001	  0.001	  0.004	 35.000	 95.628	 297.592
106662	 -0.043	  0.061	  0.674	  1.750	  0.862	 -9.516	 -0.006	  0.005	  0.003	 35.000	 95.696	 291.129
106712	 -0.041	  0.061	  0.673	  1.678	  0.883	 -9.544	 -0.005	  0.002	  0.005	 35.000	 95.764	 284.672
106762	 -0.043	  0.059	  0.676	  1.692	  0.917	 -9.582	 -0.004	  0.003	  0.003	 35.000	 95.836	 277.841
106812	 -0.045	  0.058	  0.668	  1.714	  0.848	 -9.513	  0.004	  0.002	  0.005	 35.000	 95.901	 271.678
106862	 -0.040	  0.055	  0.674	  1.738	  1.043	 -9.475	 -0.008	  0.002	 -0.003	 35.000	 95.969	 265.237
106912	 -0.041	  0.070	  0.675	  1.634	  0.911	 -9.573	 -0.004	  0.003	  0.002	 35.000	 96.037	 258.802
106962	 -0.041	  0.058	  0.675	  1.713	  0.964	 -9.541	 -0.001	 -0.002	  0.003	 35.000	 96.094	 253.412
107012	 -0.043	  0.061	  0.673	  1.717	  0.903	 -9.543	 -0.001	  0.003	  0.003	 35.000	 96.151	 248.025
107062	 -0.040	  0.066	  0.672	  1.712	  0.890	 -9.594	 -0.005	  0.003	  0.004	 35.000	 96.219	 241.604
107112	 -0.040	  0.059	  0.674	  1.625	  0.919	 -9.590	  0.001	 -0.002	  0.007	 35.000	 96.288	 235.094
107162	 -0.041	  0.062	  0.672	  1.718	  0.956	 -9.508	 -0.003	  0.002	  0.001	 35.000	 96.356	 228.684
107213	 -0.040	  0.057	  0.669	  1.811	  0.831	 -9.484	 -0.008	 -0.000	 -0.000	 35.000	 96.413	 223.315
107262	 -0.043	  0.066	  0.673	  1.592	  0.857	 -9.650	 -0.004	  0.010	  0.011	 35.000	 96.481	 216.915
107313	 -0.043	  0.057	  0.673	  1.682	  0.850	 -9.587	  0.001	 -0.002	  0.005	 35.000	 96.538	 211.554
107363	 -0.040	  0.063	  0.670	  1.816	  0.949	 -9.394	 -0.006	  0.004	  0.002	 35.000	 96.606	 205.164
107413	 -0.042	  0.058	  0.670	  1.686	  0.974	 -9.538	 -0.008	  0.005	  0.001	 35.000	 96.663	 199.811
107463	 -0.042	  0.059	  0.675	  1.688	  0.882	 -9.536	 -0.002	  0.002	  0.005	 35.000	 96.732	 193.337
107513	 -0.041	  0.061	  0.672	  1.721	  0.902	 -9.513	 -0.008	  0.008	 -0.001	 35.000	 96.800	 186.961
107563	 -0.041	  0.064	  0.672	  1.750	  0.830	 -9.557	 -0.009	  0.004	  0.000	 35.000	 96.880	 179.469
107613	 -0.041	  0.066	  0.674	  1.651	  0.956	 -9.583	  0.002	 -0.003	  0.005	 35.000	 96.948	 173.105
107663	 -0.039	  0.061	  0.674	  1.779	  0.862	 -9.479	 -0.008	  0.009	 -0.000	 35.000	 97.028	 165.625
107713	 -0.041	  0.062	  0.672	  1.690	  0.874	 -9.603	 -0.008	  0.003	  0.002	 35.000	 97.130	 156.099
107763	 -0.040	  0.060	  0.670	  1.702	  0.908	 -9.505	 -0.001	 -0.000	  0.005	 35.000	 97.305	 139.783
107813	 -0.043	  0.062	  0.672	  1.668	  0.941	 -9.583	 -0.002	  0.006	  0.006	 35.000	 97.574	 114.772
107863	 -0.041	  0.063	  0.673	  1.675	  0.879	 -9.543	 -0.005	  0.001	  0.006	 35.000	 98.348	 43.259
107913	 -0.043	  0.061	  0.669	  1.750	  0.896	 -9.537	 -0.009	  0.006	  0.001	 35.000	 98.792	  2.538
107963	 -0.041	  0.058	  0.668	  1.695	  0.871	 -9.569	 -0.006	  0.004	  0.005	 35.000	 98.837	 -1.577
108013	 -0.043	  0.060	  0.675	  1.728	  0.795	 -9.591	 -0.006	 -0.001	  0.007	 35.000	 98.826	 -0.571
108063	 -0.041	  0.065	  0.670	  1.670	  1.004	 -9.522	  0.002	 -0.002	  0.010	 35.000	 98.837	 -1.577
108113	 -0.042	  0.059	  0.672	  1.691	  0.985	 -9.510	 -0.002	  0.006	  0.003	 35.000	 98.826	 -0.571
108163	 -0.039	  0.060	  0.673	  1.723	  0.913	 -9.532	 -0.003	  0.002	  0.005	 35.000	 98.826	 -0.571
108213	 -0.038	  0.061	  0.673	  1.720	  0.908	 -9.550	 -0.003	  0.002	  0.004	 35.000	 98.815	  0.435
108263	 -0.043	  0.062	  0.670	  1.740	  0.921	 -9.527	 -0.001	 -0.001	  0.004	 35.000	 98.815	  0.435
108313	 -0.038	  0.066	  0.676	  1.754	  0.913	 -9.506	 -0.004	  0.005	  0.003	 35.000	 98.803	  1.532
108363	 -0.039	  0.063	  0.675	  1.686	  0.904	 -9.541	 -0.004	  0.002	  0.005	 35.000	 98.792	  2.538
108413	 -0.040	  0.059	  0.669	  1.802	  0.831	 -9.522	 -0.006	 -0.005	  0.005	 35.000	 98.792	  2.538
108463	 -0.041	  0.059	  0.672	  1.719	  0.963	 -9.527	 -0.002	 -0.001	  0.011	 35.000	 98.776	  4.002
108513	 -0.043	  0.060	  0.674	  1.703	  0.924	 -9.557	 -0.007	  0.008	  0.003	 35.000	 98.792	  2.538
108563	 -0.043	  0.059	  0.670	  1.686	  0.925	 -9.530	  0.000	 -0.000	  0.007	 35.000	 98.769	  4.643
108613	 -0.041	  0.058	  0.673	  1.710	  0.890	 -9.548	 -0.001	  0.002	  0.007	 35.000	 98.746	  6.747
108663	 -0.043	  0.061	  0.673	  1.697	  0.891	 -9.558	 -0.006	  0.005	  0.003	 35.000	 98.746	  6.747
108713	 -0.041	  0.067	  0.676	  1.705	  0.860	 -9.583	 -0.001	 -0.001	  0.004	 35.000	 98.723	  8.852
108763	 -0.042	  0.059	  0.673	  1.720	  0.880	 -9.542	 -0.004	  0.002	  0.004	 35.000	 98.723	  8.852
108813	 -0.041	  0.059	  0.670	  1.770	  0.919	 -9.456	  0.001	 -0.001	  0.002	 35.000	 98.712	  9.860
108863	 -0.040	  0.059	  0.674	  1.780	  1.012	 -9.440	 -0.005	 -0.000	 -0.001	 35.000	 98.712	  9.860
108913	 -0.041	  0.056	  0.674	  1.654	  0.962	 -9.550	 -0.006	  0.005	  0.003	 35.000	 98.678	 12.972
108963	 -0.039	  0.062	  0.672	  1.682	  0.831	 -9.600	 -0.002	  0.003	  0.006	 35.000	 98.689	 11.965
109013	 -0.041	  0.062	  0.669	  1.751	  0.916	 -9.505	 -0.002	  0.003	  0.003	 35.000	 98.678	 12.972
109063	 -0.041	  0.064	  0.669	  1.696	  0.914	 -9.567	 -0.005	  0.001	  0.005	 35.000	 98.674	 13.339
109113	 -0.041	  0.060	  0.674	  1.677	  0.863	 -9.564	 -0.004	  0.006	  0.004	 35.000	 98.689	 11.965
109163	 -0.040	  0.059	  0.674	  1.746	  0.866	 -9.605	 -0.004	  0.002	  0.003	 35.000	 98.689	 11.965
109213	 -0.043	  0.060	  0.672	  1.687	  0.990	 -9.542	 -0.004	  0.000	  0.003	 35.000	 98.689	 11.965
109263	 -0.038	  0.063	  0.676	  1.814	  0.894	 -9.484	 -0.007	  0.006	  0.001	 35.000	 98.678	 12.972
109312	 -0.041	  0.061	  0.674	  1.702	  0.970	 -9.542	 -0.005	  0.005	  0.001	 35.000	 98.678	 12.972
109362	 -0.041	  0.058	  0.674	  1.713	  0.930	 -9.558	 -0.002	 -0.001	  0.004	 35.000	 98.678	 12.972
109412	 -0.043	  0.059	  0.672	  1.671	  1.056	 -9.495	  0.001	 -0.001	  0.004	 35.000	 98.701	 10.867
109463	 -0.043	  0.057	  0.667	  1.733	  0.916	 -9.507	 -0.010	  0.008	 -0.005	 35.000	 98.689	 11.965
109512	 -0.038	  0.065	  0.675	  1.703	  0.908	 -9.552	 -0.001	  0.002	  0.004	 35.000	 98.689	 11.965
109562	 -0.042	  0.059	  0.672	  1.740	  0.928	 -9.524	 -0.005	  0.001	  0.001	 35.000	 98.701	 10.867
109612	 -0.040	  0.057	  0.673	  1.741	  0.868	 -9.566	 -0.004	  0.003	  0.003	 35.000	 98.689	 11.965
109662	 -0.041	  0.060	  0.675	  1.696	  0.898	 -9.574	 -0.003	  0.002	  0.005	 35.000	 98.712	  9.860
109712	 -0.043	  0.062	  0.670	  1.716	  0.913	 -9.567	 -0.005	  0.002	  0.004	 35.000	 98.697	 11.233
109762	 -0.041	  0.062	  0.673	  1.717	  0.882	 -9.587	 -0.004	  0.004	  0.004	 35.000	 98.701	 10.867
109812	 -0.038	  0.060	  0.669	  1.705	  0.887	 -9.526	 -0.004	  0.003	  0.005	 35.000	 98.712	  9.860
109862	 -0.041	  0.062	  0.670	  1.700	  0.900	 -9.576	 -0.004	  0.004	  0.003	 35.000	 98.723	  8.852
109912	 -0.042	  0.059	  0.674	  1.723	  0.922	 -9.548	 -0.005	  0.004	  0.004	 35.000	 98.712	  9.860
109962	 -0.041	  0.067	  0.674	  1.711	  0.901	 -9.551	 -0.004	  0.003	  0.004	 35.000	 98.723	  8.852
110012	 -0.041	  0.059	  0.674	  1.726	  0.902	 -9.529	 -0.004	  0.001	  0.003	 35.000	 98.723	  8.852
110062	 -0.042	  0.059	  0.675	  1.716	  0.900	 -9.551	 -0.004	  0.004	  0.004	 35.000	 98.719	  9.218
110112	 -0.043	  0.061	  0.673	  1.713	  0.934	 -9.567	 -0.005	  0.002	  0.002	 35.000	 98.719	  9.218
110162	 -0.037	  0.066	  0.675	  1.696	  0.915	 -9.555	 -0.004	  0.001	  0.002	 35.000	 98.731	  8.120
110212	 -0.042	  0.056	  0.673	  1.698	  0.904	 -9.540	 -0.003	  0.004	  0.003	 35.000	 98.723	  8.852
110262	 -0.040	  0.060	  0.676	  1.718	  0.909	 -9.554	 -0.004	  0.003	  0.005	 35.000	 98.735	  7.754
110312	 -0.041	  0.069	  0.675	  1.720	  0.905	 -9.572	 -0.004	  0.002	  0.004	 35.000	 98.731	  8.120
110362	 -0.041	  0.062	  0.668	  1.708	  0.925	 -9.582	 -0.004	  0.003	  0.003	 35.000	 98.758	  5.649
110412	 -0.041	  0.061	  0.669	  1.709	  0.880	 -9.558	 -0.003	  0.002	  0.004	 35.000	 98.746	  6.747
110462	 -0.040	  0.059	  0.674	  1.717	  0.914	 -9.524	 -0.004	  0.001	  0.004	 35.000	 98.746	  6.747
110512	 -0.041	  0.063	  0.672	  1.729	  0.880	 -9.524	 -0.003	  0.004	  0.004	 35.000	 98.758	  5.649
110562	 -0.042	  0.056	  0.673	  1.737	  0.900	 -9.550	 -0.002	  0.004	  0.003	 35.000	 98.758	  5.649
110612	 -0.042	  0.059	  0.673	  1.720	  0.875	 -9.564	 -0.005	  0.003	  0.004	 35.000	 98.754	  6.015
110662	 -0.041	  0.065	  0.675	  1.716	  0.905	 -9.562	 -0.004	  0.004	  0.003	 35.000	 98.746	  6.747
110712	 -0.041	  0.069	  0.674	  1.698	  0.896	 -9.529	 -0.003	  0.002	  0.003	 35.000	 98.754	  6.015
110762	 -0.041	  0.068	  0.672	  1.712	  0.918	 -9.490	 -0.004	  0.003	  0.003	 35.000	 98.758	  5.649
110812	 -0.038	  0.067	  0.676	  1.711	  0.865	 -9.529	 -0.005	  0.004	  0.005	 35.000	 98.758	  5.649
110862	 -0.043	  0.068	  0.674	  1.711	  0.919	 -9.526	 -0.003	  0.001	  0.003	 35.000	 98.758	  5.649
110912	 -0.041	  0.059	  0.675	  1.739	  0.862	 -9.565	 -0.004	  0.001	  0.004	 35.000	 98.769	  4.643
110962	 -0.041	  0.065	  0.675	  1.683	  0.903	 -9.548	 -0.003	  0.003	  0.003	 35.000	 98.765	  5.008
111012	 -0.040	  0.060	  0.674	  1.705	  0.878	 -9.542	 -0.004	  0.004	  0.004	 35.000	 98.776	  4.002
111062	 -0.041	  0.064	  0.672	  1.696	  0.921	 -9.558	 -0.005	  0.002	  0.003	 35.000	 98.754	  6.015
111112	 -0.038	  0.065	  0.669	  1.704	  0.876	 -9.558	 -0.003	  0.003	  0.003	 35.000	 98.765	  5.008
111162	 -0.043	  0.063	  0.675	  1.716	  0.896	 -9.525	 -0.005	  0.000	  0.003	 35.000	 98.758	  5.649
