Time	 MagX	 MagY	 MagZ	 AccelX	 AccelY	 AccelZ	 Yaw	 Pitch	 Roll	 Temperature	 Pressure	 Altitude
44983	  0.029	 -0.166	  1.099	  0.693	  1.693	 -9.537	 -0.003	  0.002	  0.004	 26.800	 99.747	 -99999.000
45030	  0.029	 -0.171	  1.097	  0.673	  1.648	 -9.525	 -0.001	  0.008	  0.002	 26.800	 99.747	 -99999.000
45080	  0.032	 -0.167	  1.102	  0.641	  1.541	 -9.605	 -0.007	 -0.009	  0.006	 26.800	 99.747	 -99999.000
45130	  0.029	 -0.166	  1.097	  0.764	  1.739	 -9.600	  0.002	  0.015	  0.004	 26.800	 99.747	 -99999.000
45180	  0.027	 -0.159	  1.100	  0.642	  1.585	 -9.588	 -0.010	 -0.019	  0.001	 26.900	 99.762	 -99999.000
45230	  0.032	 -0.165	  1.098	  0.663	  1.671	 -9.590	  0.003	  0.021	  0.006	 26.800	 99.747	 -99999.000
45280	  0.029	 -0.164	  1.100	  0.728	  1.615	 -9.534	 -0.003	  0.001	  0.004	 26.800	 99.747	 -99999.000
45330	  0.032	 -0.165	  1.098	  0.674	  1.606	 -9.609	 -0.004	 -0.003	  0.002	 26.800	 99.747	 -99999.000
45380	  0.029	 -0.168	  1.098	  0.693	  1.651	 -9.595	 -0.004	  0.002	  0.005	 26.800	 99.758	 -99999.000
45430	  0.028	 -0.168	  1.099	  0.687	  1.651	 -9.574	 -0.006	 -0.005	  0.001	 26.800	 99.747	 -99999.000
45480	  0.032	 -0.170	  1.100	  0.674	  1.606	 -9.606	 -0.001	  0.008	  0.004	 26.800	 99.747	 -99999.000
45530	  0.026	 -0.163	  1.101	  0.705	  1.640	 -9.571	  0.001	  0.012	  0.006	 26.800	 99.747	 -99999.000
45580	  0.028	 -0.164	  1.100	  0.698	  1.609	 -9.553	 -0.007	 -0.005	  0.003	 26.900	 99.751	 -99999.000
45630	  0.031	 -0.166	  1.100	  0.661	  1.622	 -9.618	 -0.005	 -0.005	  0.001	 26.900	 99.747	 -99999.000
45680	  0.030	 -0.161	  1.100	  0.678	  1.664	 -9.566	 -0.002	  0.004	  0.004	 26.900	 99.751	 -99999.000
45730	  0.030	 -0.168	  1.099	  0.654	  1.606	 -9.609	 -0.002	  0.004	  0.003	 26.900	 99.747	 -99999.000
45780	  0.029	 -0.166	  1.098	  0.711	  1.648	 -9.570	 -0.001	  0.007	  0.004	 26.900	 99.751	 -99999.000
45830	  0.031	 -0.171	  1.098	  0.695	  1.629	 -9.602	 -0.004	 -0.002	  0.002	 26.900	 99.751	 -99999.000
45880	  0.029	 -0.163	  1.095	  0.664	  1.620	 -9.580	 -0.004	 -0.003	  0.001	 26.900	 99.751	 -99999.000
45930	  0.027	 -0.164	  1.101	  0.670	  1.653	 -9.588	 -0.002	  0.006	  0.003	 26.900	 99.762	 -99999.000
45980	  0.029	 -0.164	  1.097	  0.667	  1.635	 -9.577	 -0.002	  0.004	  0.004	 26.900	 99.751	 -99999.000
46030	  0.030	 -0.168	  1.100	  0.688	  1.633	 -9.554	 -0.004	  0.002	  0.003	 26.900	 99.735	 -99999.000
46080	  0.030	 -0.165	  1.097	  0.699	  1.638	 -9.592	 -0.004	 -0.002	  0.004	 26.900	 99.762	 -99999.000
46130	  0.031	 -0.159	  1.102	  0.677	  1.643	 -9.570	 -0.003	  0.002	  0.003	 26.900	 99.762	 -99999.000
46180	  0.031	 -0.167	  1.097	  0.656	  1.633	 -9.593	 -0.002	  0.007	  0.003	 26.900	 99.751	 -99999.000
46230	  0.031	 -0.161	  1.105	  0.686	  1.644	 -9.579	 -0.003	  0.001	  0.004	 26.900	 99.751	 -99999.000
46280	  0.029	 -0.167	  1.098	  0.661	  1.653	 -9.566	 -0.002	  0.001	  0.003	 26.900	 99.751	 -99999.000
46330	  0.031	 -0.167	  1.094	  0.693	  1.634	 -9.578	 -0.003	  0.002	  0.003	 26.900	 99.751	 -99999.000
46380	  0.027	 -0.170	  1.100	  0.668	  1.632	 -9.589	 -0.005	 -0.001	  0.002	 26.900	 99.751	 -99999.000
46430	  0.031	 -0.167	  1.096	  0.651	  1.638	 -9.578	 -0.002	  0.004	  0.004	 26.900	 99.751	 -99999.000
46480	  0.030	 -0.166	  1.098	  0.704	  1.646	 -9.561	 -0.003	  0.005	  0.004	 26.900	 99.755	 -99999.000
46530	  0.028	 -0.162	  1.094	  0.674	  1.612	 -9.581	 -0.004	  0.001	  0.002	 26.900	 99.766	 -99999.000
46580	  0.029	 -0.164	  1.103	  0.679	  1.621	 -9.552	 -0.003	  0.000	  0.002	 26.900	 99.740	 -99999.000
46630	  0.031	 -0.167	  1.092	  0.645	  1.619	 -9.604	 -0.003	  0.002	  0.003	 26.900	 99.755	 -99999.000
46680	  0.028	 -0.171	  1.094	  0.687	  1.652	 -9.607	 -0.002	  0.004	  0.004	 26.900	 99.744	 -99999.000
46730	  0.029	 -0.169	  1.096	  0.693	  1.629	 -9.573	 -0.003	  0.003	  0.004	 26.900	 99.755	 -99999.000
46780	  0.029	 -0.167	  1.099	  0.671	  1.630	 -9.588	 -0.004	  0.001	  0.003	 26.900	 99.755	 -99999.000
46830	  0.030	 -0.166	  1.097	  0.681	  1.606	 -9.621	 -0.005	 -0.001	  0.002	 26.900	 99.755	 -99999.000
46880	  0.029	 -0.168	  1.099	  0.702	  1.670	 -9.607	 -0.002	  0.005	  0.003	 26.900	 99.744	 -99999.000
46930	  0.029	 -0.169	  1.099	  0.707	  1.624	 -9.579	 -0.003	  0.002	  0.002	 26.900	 99.744	 -99999.000
46980	  0.031	 -0.161	  1.100	  0.680	  1.650	 -9.588	 -0.004	  0.002	  0.003	 26.900	 99.755	 -99999.000
47030	  0.028	 -0.168	  1.100	  0.697	  1.622	 -9.558	 -0.003	  0.002	  0.002	 26.900	 99.755	 -99999.000
47080	  0.028	 -0.160	  1.097	  0.686	  1.643	 -9.597	 -0.003	  0.001	  0.004	 26.900	 99.744	 -99999.000
47130	  0.029	 -0.162	  1.098	  0.686	  1.621	 -9.567	 -0.002	  0.005	  0.002	 26.900	 99.755	 -99999.000
47180	  0.030	 -0.157	  1.096	  0.659	  1.627	 -9.538	 -0.004	 -0.004	  0.003	 26.900	 99.755	 -99999.000
47230	  0.029	 -0.161	  1.098	  0.673	  1.661	 -9.576	 -0.002	  0.005	  0.004	 26.900	 99.744	 -99999.000
47280	  0.030	 -0.167	  1.095	  0.699	  1.630	 -9.543	 -0.002	  0.007	  0.004	 26.900	 99.755	 -99999.000
47330	  0.026	 -0.167	  1.094	  0.682	  1.647	 -9.566	 -0.004	 -0.001	  0.002	 26.900	 99.755	 -99999.000
47380	  0.030	 -0.168	  1.097	  0.685	  1.637	 -9.550	 -0.003	  0.003	  0.002	 26.900	 99.755	 -99999.000
47430	  0.031	 -0.167	  1.098	  0.660	  1.628	 -9.615	 -0.004	  0.001	  0.004	 26.900	 99.744	 -99999.000
47480	  0.030	 -0.166	  1.093	  0.664	  1.647	 -9.565	 -0.004	  0.006	  0.003	 26.900	 99.733	 -99999.000
47530	  0.029	 -0.161	  1.099	  0.684	  1.627	 -9.590	 -0.002	  0.003	  0.003	 26.900	 99.755	 -99999.000
47580	  0.031	 -0.164	  1.097	  0.672	  1.627	 -9.547	 -0.004	  0.002	  0.003	 26.900	 99.748	 -99999.000
47630	  0.029	 -0.172	  1.095	  0.688	  1.640	 -9.574	 -0.003	  0.002	  0.003	 26.900	 99.733	 -99999.000
47680	  0.030	 -0.169	  1.098	  0.662	  1.632	 -9.577	 -0.004	  0.001	  0.002	 26.900	 99.755	 -99999.000
47730	  0.030	 -0.165	  1.097	  0.699	  1.683	 -9.606	 -0.002	  0.003	  0.003	 26.900	 99.755	 -99999.000
47780	  0.030	 -0.166	  1.094	  0.671	  1.686	 -9.509	 -0.004	  0.001	  0.002	 26.900	 99.748	 -99999.000
47830	  0.031	 -0.164	  1.095	  0.670	  1.635	 -9.581	 -0.002	  0.006	  0.004	 26.900	 99.744	 -99999.000
47880	  0.030	 -0.166	  1.103	  0.668	  1.663	 -9.552	 -0.003	  0.004	  0.003	 26.900	 99.748	 -99999.000
47930	  0.032	 -0.165	  1.096	  0.675	  1.656	 -9.598	 -0.004	  0.001	  0.003	 26.900	 99.744	 -99999.000
47981	  0.031	 -0.168	  1.098	  0.673	  1.607	 -9.578	 -0.004	 -0.002	  0.002	 26.900	 99.759	 -99999.000
48030	  0.033	 -0.163	  1.099	  0.672	  1.660	 -9.564	 -0.001	  0.005	  0.004	 26.900	 99.755	 -99999.000
48080	  0.031	 -0.166	  1.096	  0.671	  1.622	 -9.604	 -0.003	  0.001	  0.004	 26.900	 99.759	 -99999.000
48130	  0.030	 -0.165	  1.095	  0.682	  1.653	 -9.523	 -0.003	  0.004	  0.003	 26.900	 99.748	 -99999.000
48180	  0.029	 -0.167	  1.098	  0.822	  1.645	 -9.564	 -0.004	  0.001	  0.001	 26.900	 99.748	 -99999.000
48230	  0.030	 -0.169	  1.096	  0.675	  1.665	 -9.583	 -0.005	 -0.001	  0.000	 26.900	 99.748	 -99999.000
48280	  0.030	 -0.167	  1.095	  0.687	  1.649	 -9.594	 -0.003	  0.006	  0.004	 26.900	 99.748	 -99999.000
48330	  0.029	 -0.170	  1.099	  0.660	  1.608	 -9.591	 -0.003	  0.004	  0.004	 26.900	 99.748	 -99999.000
48380	  0.031	 -0.166	  1.098	  0.745	  1.708	 -9.506	  0.002	  0.005	  0.004	 26.900	 99.748	 -99999.000
48430	  0.032	 -0.160	  1.097	  0.728	  1.574	 -9.689	 -0.008	 -0.002	  0.002	 26.900	 99.759	 -99999.000
48480	  0.030	 -0.163	  1.097	  0.686	  1.622	 -9.632	 -0.003	  0.003	  0.002	 26.900	 99.748	 -99999.000
48530	  0.032	 -0.168	  1.101	  0.707	  1.668	 -9.563	  0.002	  0.010	  0.004	 26.900	 99.748	 -99999.000
48580	  0.030	 -0.163	  1.096	  0.718	  1.668	 -9.591	 -0.003	 -0.002	  0.002	 26.900	 99.748	 -99999.000
48630	  0.029	 -0.160	  1.096	  0.664	  1.620	 -9.573	 -0.005	  0.001	  0.002	 26.900	 99.748	 -99999.000
48680	  0.030	 -0.167	  1.098	  0.708	  1.644	 -9.602	 -0.003	  0.001	  0.002	 26.900	 99.752	 -99999.000
48730	  0.029	 -0.172	  1.097	  0.720	  1.633	 -9.586	 -0.003	  0.000	  0.002	 26.900	 99.748	 -99999.000
48780	  0.032	 -0.164	  1.092	  0.694	  1.642	 -9.576	 -0.005	 -0.006	  0.002	 26.900	 99.752	 -99999.000
48830	  0.032	 -0.169	  1.095	  0.691	  1.659	 -9.588	 -0.008	 -0.015	 -0.001	 26.900	 99.741	 -99999.000
48880	  0.033	 -0.170	  1.097	  0.610	  1.659	 -9.570	 -0.008	 -0.014	 -0.001	 26.900	 99.752	 -99999.000
48930	  0.033	 -0.166	  1.095	  0.625	  1.675	 -9.581	 -0.004	  0.002	  0.003	 26.900	 99.752	 -99999.000
48980	  0.033	 -0.164	  1.097	  0.657	  1.642	 -9.578	 -0.003	  0.005	  0.004	 26.900	 99.748	 -99999.000
49031	  0.032	 -0.163	  1.095	  0.657	  1.667	 -9.588	 -0.006	 -0.006	  0.001	 26.900	 99.752	 -99999.000
49080	  0.033	 -0.166	  1.100	  0.667	  1.656	 -9.553	 -0.005	 -0.006	  0.002	 26.900	 99.763	 -99999.000
49131	  0.034	 -0.164	  1.095	  0.635	  1.638	 -9.590	 -0.006	 -0.004	  0.003	 26.900	 99.748	 -99999.000
49180	  0.032	 -0.164	  1.098	  0.638	  1.704	 -9.582	  0.001	  0.014	  0.006	 26.900	 99.763	 -99999.000
49230	  0.034	 -0.168	  1.092	  0.674	  1.591	 -9.562	 -0.001	  0.008	  0.006	 26.900	 99.752	 -99999.000
49280	  0.035	 -0.167	  1.096	  0.704	  1.664	 -9.575	 -0.004	 -0.001	  0.003	 26.900	 99.752	 -99999.000
49330	  0.033	 -0.167	  1.100	  0.653	  1.665	 -9.569	 -0.004	 -0.002	  0.002	 26.900	 99.752	 -99999.000
49380	  0.034	 -0.165	  1.100	  0.637	  1.625	 -9.607	 -0.006	 -0.003	  0.002	 26.900	 99.752	 -99999.000
49431	  0.037	 -0.164	  1.095	  0.644	  1.661	 -9.567	 -0.001	  0.007	  0.004	 26.900	 99.752	 -99999.000
49481	  0.032	 -0.168	  1.098	  0.647	  1.649	 -9.570	 -0.001	  0.008	  0.004	 26.900	 99.752	 -99999.000
49531	  0.036	 -0.168	  1.101	  0.676	  1.657	 -9.577	 -0.003	  0.001	  0.004	 26.900	 99.752	 -99999.000
49581	  0.033	 -0.166	  1.094	  0.652	  1.622	 -9.617	 -0.004	 -0.001	  0.002	 26.900	 99.763	 -99999.000
49631	  0.034	 -0.171	  1.100	  0.645	  1.661	 -9.571	 -0.003	  0.001	  0.003	 26.900	 99.752	 -99999.000
49681	  0.033	 -0.167	  1.097	  0.634	  1.629	 -9.603	 -0.002	  0.005	  0.003	 26.900	 99.741	 -99999.000
49730	  0.034	 -0.168	  1.092	  0.651	  1.645	 -9.551	 -0.001	  0.005	  0.004	 26.900	 99.752	 -99999.000
49780	  0.035	 -0.167	  1.094	  0.657	  1.651	 -9.556	 -0.003	  0.002	  0.003	 26.900	 99.752	 -99999.000
49830	  0.034	 -0.166	  1.099	  0.645	  1.650	 -9.619	 -0.004	  0.000	  0.003	 26.900	 99.741	 -99999.000
49880	  0.034	 -0.168	  1.094	  0.658	  1.628	 -9.553	 -0.003	  0.003	  0.003	 26.900	 99.752	 -99999.000
49930	  0.034	 -0.166	  1.097	  0.652	  1.674	 -9.593	 -0.003	  0.004	  0.003	 26.900	 99.741	 -99999.000
49980	  0.034	 -0.171	  1.092	  0.653	  1.651	 -9.592	 -0.003	  0.003	  0.003	 26.900	 99.752	 -99999.000
50030	  0.034	 -0.168	  1.100	  0.662	  1.679	 -9.617	 -0.004	  0.001	  0.004	 26.900	 99.745	 -99999.000
50080	  0.036	 -0.162	  1.096	  0.652	  1.651	 -9.588	 -0.004	 -0.000	  0.002	 26.900	 99.757	 -99999.000
50130	  0.031	 -0.169	  1.096	  0.623	  1.671	 -9.566	 -0.002	  0.006	  0.004	 26.900	 99.752	 -99999.000
50180	  0.035	 -0.169	  1.099	  0.660	  1.683	 -9.569	 -0.002	  0.003	  0.002	 26.900	 99.752	 -99999.000
50230	  0.033	 -0.165	  1.097	  0.638	  1.668	 -9.627	 -0.004	  0.002	  0.003	 26.900	 99.757	 -99999.000
50280	  0.033	 -0.167	  1.092	  0.643	  1.669	 -9.579	 -0.002	  0.001	  0.003	 26.900	 99.757	 -99999.000
50330	  0.034	 -0.159	  1.099	  0.640	  1.644	 -9.633	 -0.004	  0.001	  0.003	 26.900	 99.745	 -99999.000
50380	  0.034	 -0.168	  1.097	  0.636	  1.644	 -9.596	 -0.003	  0.006	  0.003	 26.900	 99.745	 -99999.000
50430	  0.032	 -0.163	  1.095	  0.659	  1.623	 -9.607	 -0.003	  0.004	  0.003	 26.900	 99.757	 -99999.000
50480	  0.033	 -0.167	  1.097	  0.655	  1.641	 -9.577	 -0.004	  0.001	  0.003	 26.900	 99.745	 -99999.000
50530	  0.033	 -0.171	  1.089	  0.662	  1.640	 -9.564	 -0.003	  0.000	  0.003	 26.900	 99.750	 -99999.000
50580	  0.031	 -0.169	  1.094	  0.643	  1.665	 -9.587	 -0.003	  0.001	  0.004	 26.900	 99.745	 -99999.000
50630	  0.033	 -0.165	  1.095	  0.643	  1.645	 -9.578	 -0.002	  0.005	  0.002	 26.900	 99.750	 -99999.000
50680	  0.033	 -0.163	  1.101	  0.676	  1.656	 -9.560	 -0.001	  0.010	  0.004	 26.900	 99.745	 -99999.000
50730	  0.033	 -0.169	  1.096	  0.671	  1.602	 -9.605	 -0.006	 -0.006	  0.001	 26.900	 99.745	 -99999.000
50780	  0.031	 -0.166	  1.100	  0.616	  1.675	 -9.545	 -0.004	 -0.002	  0.002	 26.900	 99.757	 -99999.000
50830	  0.033	 -0.166	  1.096	  0.643	  1.659	 -9.579	 -0.000	  0.014	  0.005	 26.900	 99.757	 -99999.000
50880	  0.034	 -0.168	  1.101	  0.647	  1.630	 -9.576	 -0.004	 -0.001	  0.002	 26.900	 99.745	 -99999.000
50930	  0.033	 -0.168	  1.100	  0.662	  1.665	 -9.592	 -0.002	  0.002	  0.003	 26.900	 99.761	 -99999.000
56606	  0.035	 -0.171	  1.095	  0.692	  1.716	 -9.403	 -0.003	  0.002	  0.003	 27.000	 99.744	  0.618
56655	  0.034	 -0.166	  1.093	  0.644	  1.728	 -9.516	 -0.001	  0.003	  0.004	 27.000	 99.755	 -0.355
56705	  0.033	 -0.170	  1.096	  0.628	  1.660	 -9.627	 -0.003	  0.001	  0.003	 27.000	 99.744	  0.618
56755	  0.033	 -0.170	  1.092	  0.658	  1.627	 -9.614	 -0.002	  0.005	  0.004	 27.000	 99.755	 -0.355
56805	  0.032	 -0.162	  1.099	  0.645	  1.667	 -9.605	 -0.003	  0.002	  0.002	 27.000	 99.748	  0.264
56855	  0.035	 -0.166	  1.100	  0.635	  1.669	 -9.584	 -0.004	 -0.000	  0.004	 27.000	 99.748	  0.264
56905	  0.032	 -0.167	  1.094	  0.651	  1.655	 -9.582	 -0.003	  0.004	  0.003	 27.000	 99.760	 -0.798
56955	  0.034	 -0.169	  1.099	  0.662	  1.650	 -9.598	 -0.003	  0.002	  0.002	 27.000	 99.748	  0.264
57005	  0.035	 -0.171	  1.097	  0.663	  1.638	 -9.592	 -0.002	  0.002	  0.003	 27.000	 99.748	  0.264
57055	  0.032	 -0.169	  1.096	  0.640	  1.634	 -9.563	 -0.004	 -0.001	  0.003	 27.000	 99.760	 -0.798
57105	  0.034	 -0.174	  1.092	  0.642	  1.661	 -9.637	 -0.003	  0.003	  0.003	 27.000	 99.760	 -0.798
57155	  0.036	 -0.160	  1.097	  0.643	  1.645	 -9.547	 -0.002	  0.004	  0.004	 27.000	 99.748	  0.264
57205	  0.033	 -0.173	  1.097	  0.680	  1.669	 -9.587	 -0.003	  0.001	  0.004	 27.000	 99.748	  0.264
57255	  0.033	 -0.169	  1.096	  0.649	  1.656	 -9.566	 -0.005	 -0.001	  0.002	 27.000	 99.748	  0.264
57305	  0.034	 -0.168	  1.095	  0.631	  1.640	 -9.572	 -0.004	  0.001	  0.003	 27.000	 99.748	  0.264
57355	  0.034	 -0.170	  1.100	  0.646	  1.679	 -9.590	 -0.001	  0.007	  0.004	 27.000	 99.748	  0.264
57405	  0.034	 -0.172	  1.096	  0.679	  1.646	 -9.606	 -0.003	  0.003	  0.004	 27.000	 99.760	 -0.798
57455	  0.033	 -0.166	  1.100	  0.648	  1.628	 -9.605	 -0.005	 -0.002	  0.003	 27.000	 99.760	 -0.798
57505	  0.035	 -0.167	  1.099	  0.654	  1.655	 -9.588	 -0.005	  0.000	  0.002	 27.000	 99.748	  0.264
57555	  0.035	 -0.168	  1.097	  0.634	  1.638	 -9.622	 -0.003	  0.003	  0.003	 27.000	 99.760	 -0.798
57605	  0.036	 -0.162	  1.096	  0.645	  1.665	 -9.607	 -0.001	  0.006	  0.004	 27.000	 99.748	  0.264
57655	  0.034	 -0.168	  1.099	  0.680	  1.645	 -9.606	  0.000	  0.012	  0.005	 27.000	 99.748	  0.264
57705	  0.034	 -0.166	  1.100	  0.667	  1.626	 -9.626	 -0.007	 -0.010	  0.001	 27.000	 99.748	  0.264
57755	  0.035	 -0.172	  1.098	  0.662	  1.687	 -9.609	 -0.005	 -0.004	  0.001	 27.000	 99.748	  0.264
57805	  0.034	 -0.170	  1.092	  0.644	  1.637	 -9.598	  0.001	  0.012	  0.004	 27.000	 99.741	  0.885
57855	  0.033	 -0.172	  1.099	  0.664	  1.594	 -9.586	 -0.001	  0.006	  0.003	 27.000	 99.753	 -0.178
57905	  0.033	 -0.167	  1.096	  0.686	  1.682	 -9.584	 -0.006	 -0.004	  0.002	 27.000	 99.764	 -1.153
57955	  0.037	 -0.168	  1.088	  0.641	  1.659	 -9.612	 -0.004	 -0.001	  0.001	 27.000	 99.741	  0.885
58005	  0.034	 -0.162	  1.095	  0.609	  1.643	 -9.605	 -0.003	  0.004	  0.003	 27.000	 99.753	 -0.178
58055	  0.032	 -0.170	  1.093	  0.649	  1.578	 -9.618	  0.001	  0.015	  0.007	 27.000	 99.753	 -0.178
58105	  0.032	 -0.162	  1.096	  0.687	  1.616	 -9.570	 -0.003	  0.002	  0.003	 27.000	 99.764	 -1.153
58155	  0.034	 -0.170	  1.098	  0.673	  1.715	 -9.573	 -0.009	 -0.014	 -0.000	 27.000	 99.753	 -0.178
58205	  0.036	 -0.167	  1.095	  0.581	  1.658	 -9.601	 -0.004	 -0.004	  0.002	 27.000	 99.748	  0.264
58255	  0.033	 -0.167	  1.097	  0.613	  1.638	 -9.603	  0.000	  0.013	  0.006	 27.000	 99.741	  0.885
58305	  0.032	 -0.170	  1.095	  0.699	  1.660	 -9.571	  0.003	  0.016	  0.005	 27.000	 99.753	 -0.178
58355	  0.034	 -0.169	  1.092	  0.697	  1.622	 -9.593	 -0.004	 -0.001	  0.003	 27.000	 99.753	 -0.178
58405	  0.031	 -0.175	  1.097	  0.645	  1.651	 -9.610	 -0.007	 -0.013	  0.000	 27.000	 99.753	 -0.178
58455	  0.033	 -0.162	  1.097	  0.625	  1.678	 -9.580	 -0.005	  0.001	  0.003	 27.100	 99.753	 -0.178
58505	  0.034	 -0.173	  1.098	  0.615	  1.665	 -9.566	  0.000	  0.011	  0.004	 27.000	 99.753	 -0.178
58555	  0.034	 -0.167	  1.095	  0.669	  1.643	 -9.575	  0.001	  0.010	  0.005	 27.000	 99.753	 -0.178
58605	  0.032	 -0.168	  1.097	  0.686	  1.653	 -9.585	 -0.005	 -0.002	  0.002	 27.100	 99.757	 -0.533
58655	  0.032	 -0.172	  1.099	  0.619	  1.650	 -9.603	 -0.007	 -0.009	  0.001	 27.100	 99.753	 -0.178
58705	  0.033	 -0.171	  1.096	  0.608	  1.627	 -9.560	 -0.003	  0.004	  0.004	 27.000	 99.753	 -0.178
58755	  0.030	 -0.173	  1.099	  0.653	  1.649	 -9.569	 -0.000	  0.012	  0.006	 27.000	 99.753	 -0.178
58805	  0.034	 -0.174	  1.099	  0.670	  1.653	 -9.563	 -0.003	  0.003	  0.002	 27.000	 99.764	 -1.153
58855	  0.033	 -0.170	  1.092	  0.652	  1.625	 -9.606	 -0.004	 -0.001	  0.003	 27.100	 99.757	 -0.533
58905	  0.033	 -0.169	  1.099	  0.633	  1.634	 -9.578	 -0.004	 -0.001	  0.001	 27.000	 99.764	 -1.153
58955	  0.034	 -0.171	  1.096	  0.625	  1.647	 -9.609	 -0.001	  0.004	  0.004	 27.000	 99.737	  1.239
59006	  0.035	 -0.168	  1.096	  0.672	  1.653	 -9.563	 -0.003	  0.005	  0.005	 27.100	 99.746	  0.441
59055	  0.035	 -0.171	  1.097	  0.633	  1.651	 -9.607	 -0.003	  0.003	  0.003	 27.000	 99.753	 -0.178
59106	  0.033	 -0.171	  1.096	  0.642	  1.633	 -9.605	 -0.003	  0.002	  0.003	 27.100	 99.757	 -0.533
59156	  0.033	 -0.166	  1.098	  0.651	  1.665	 -9.567	 -0.003	  0.001	  0.003	 27.100	 99.757	 -0.533
59206	  0.036	 -0.170	  1.096	  0.648	  1.651	 -9.620	 -0.003	  0.001	  0.004	 27.100	 99.761	 -0.887
59256	  0.034	 -0.167	  1.098	  0.637	  1.663	 -9.591	 -0.003	  0.005	  0.004	 27.100	 99.746	  0.441
59305	  0.032	 -0.164	  1.098	  0.648	  1.665	 -9.585	 -0.002	  0.005	  0.004	 27.100	 99.757	 -0.533
59355	  0.031	 -0.167	  1.097	  0.660	  1.637	 -9.541	 -0.004	  0.000	  0.004	 27.100	 99.746	  0.441
59406	  0.033	 -0.164	  1.098	  0.648	  1.672	 -9.587	 -0.005	 -0.001	  0.003	 27.100	 99.757	 -0.533
59456	  0.033	 -0.173	  1.095	  0.616	  1.651	 -9.529	 -0.002	  0.003	  0.003	 27.100	 99.750	  0.087
59506	  0.035	 -0.167	  1.098	  0.633	  1.657	 -9.603	 -0.001	  0.006	  0.005	 27.100	 99.757	 -0.533
59556	  0.034	 -0.171	  1.097	  0.665	  1.639	 -9.563	 -0.003	  0.004	  0.002	 27.100	 99.746	  0.441
59606	  0.036	 -0.169	  1.096	  0.656	  1.667	 -9.604	 -0.004	 -0.001	  0.001	 27.100	 99.746	  0.441
59656	  0.036	 -0.165	  1.095	  0.622	  1.653	 -9.587	 -0.003	  0.001	  0.003	 27.100	 99.757	 -0.533
59706	  0.035	 -0.167	  1.098	  0.657	  1.657	 -9.582	 -0.002	  0.006	  0.004	 27.100	 99.757	 -0.533
59756	  0.032	 -0.171	  1.092	  0.646	  1.648	 -9.570	 -0.001	  0.005	  0.003	 27.100	 99.746	  0.441
59806	  0.033	 -0.175	  1.098	  0.671	  1.643	 -9.579	 -0.004	  0.000	  0.002	 27.100	 99.757	 -0.533
59856	  0.033	 -0.161	  1.094	  0.642	  1.648	 -9.579	 -0.002	  0.000	  0.001	 27.100	 99.734	  1.504
59906	  0.034	 -0.173	  1.097	  0.655	  1.653	 -9.568	 -0.004	  0.002	  0.004	 27.100	 99.757	 -0.533
59956	  0.034	 -0.171	  1.099	  0.661	  1.653	 -9.586	 -0.003	  0.005	  0.003	 27.100	 99.761	 -0.887
60006	  0.034	 -0.171	  1.096	  0.661	  1.669	 -9.605	 -0.003	  0.003	  0.003	 27.100	 99.761	 -0.887
60056	  0.035	 -0.169	  1.096	  0.663	  1.645	 -9.587	 -0.004	  0.001	  0.004	 27.100	 99.750	  0.087
60106	  0.033	 -0.173	  1.098	  0.650	  1.637	 -9.574	 -0.004	  0.001	  0.002	 27.100	 99.772	 -1.862
60156	  0.034	 -0.170	  1.099	  0.676	  1.665	 -9.576	 -0.003	 -0.002	  0.001	 27.100	 99.761	 -0.887
60206	  0.036	 -0.162	  1.095	  0.723	  1.657	 -9.454	  0.006	  0.025	  0.008	 27.100	 99.757	 -0.533
60256	  0.029	 -0.169	  1.094	  0.507	  1.689	 -9.623	  0.017	  0.063	  0.016	 27.100	 99.761	 -0.887
60306	  0.026	 -0.168	  1.097	  0.680	  1.654	 -9.582	  0.030	  0.095	  0.022	 27.100	 99.761	 -0.887
60356	  0.021	 -0.172	  1.095	  0.982	  1.531	 -9.553	  0.019	  0.057	  0.014	 27.100	 99.750	  0.087
60406	  0.019	 -0.167	  1.097	  0.661	  1.665	 -9.579	 -0.005	 -0.000	  0.001	 27.100	 99.750	  0.087
60456	  0.020	 -0.172	  1.097	  0.718	  1.638	 -9.584	  0.024	  0.069	  0.016	 27.100	 99.750	  0.087
60506	  0.014	 -0.165	  1.097	  0.598	  1.687	 -9.554	  0.037	  0.093	  0.023	 27.100	 99.750	  0.087
60556	  0.009	 -0.161	  1.097	  0.846	  1.618	 -9.566	  0.085	  0.174	  0.040	 27.100	 99.761	 -0.887
60606	  0.000	 -0.163	  1.103	  1.346	  1.287	 -9.528	  0.047	  0.090	  0.025	 27.100	 99.750	  0.087
60656	  0.001	 -0.169	  1.100	  1.179	  1.408	 -9.564	 -0.042	 -0.066	 -0.012	 27.100	 99.761	 -0.887
60706	  0.005	 -0.156	  1.099	  0.803	  1.593	 -9.546	 -0.049	 -0.085	 -0.016	 27.100	 99.750	  0.087
60756	  0.009	 -0.167	  1.096	  0.775	  1.635	 -9.606	 -0.020	 -0.031	 -0.005	 27.100	 99.754	 -0.266
60806	  0.010	 -0.166	  1.094	  0.783	  1.624	 -9.545	  0.008	  0.022	  0.007	 27.100	 99.750	  0.087
60856	  0.009	 -0.166	  1.105	  0.934	  1.539	 -9.589	  0.011	  0.028	  0.009	 27.100	 99.739	  1.062
60906	  0.008	 -0.168	  1.097	  0.971	  1.517	 -9.543	 -0.002	  0.007	  0.003	 27.100	 99.750	  0.087
60956	  0.008	 -0.168	  1.094	  0.935	  1.529	 -9.596	 -0.017	 -0.026	 -0.003	 27.100	 99.739	  1.062
61005	  0.008	 -0.170	  1.099	  0.825	  1.577	 -9.584	 -0.017	 -0.023	 -0.003	 27.100	 99.750	  0.087
61056	  0.011	 -0.167	  1.094	  0.834	  1.591	 -9.594	 -0.006	 -0.003	  0.001	 27.100	 99.765	 -1.242
61106	  0.012	 -0.173	  1.093	  0.922	  1.506	 -9.610	 -0.012	 -0.018	 -0.002	 27.100	 99.754	 -0.266
61155	  0.011	 -0.168	  1.095	  0.841	  1.573	 -9.569	 -0.011	 -0.016	 -0.001	 27.100	 99.743	  0.708
61205	  0.014	 -0.167	  1.094	  0.830	  1.582	 -9.587	 -0.013	 -0.018	 -0.001	 27.100	 99.750	  0.087
61255	  0.015	 -0.169	  1.099	  0.877	  1.556	 -9.555	 -0.010	 -0.012	  0.001	 27.100	 99.754	 -0.266
61305	  0.013	 -0.170	  1.094	  0.583	  1.691	 -9.574	  0.011	  0.033	  0.009	 27.100	 99.761	 -0.887
61355	  0.008	 -0.159	  1.100	  0.899	  1.562	 -9.555	  0.037	  0.086	  0.022	 27.100	 99.754	 -0.266
61405	  0.005	 -0.158	  1.101	  1.073	  1.463	 -9.540	  0.023	  0.051	  0.014	 27.100	 99.750	  0.087
61455	  0.005	 -0.165	  1.099	  0.967	  1.486	 -9.565	 -0.009	 -0.007	  0.000	 27.100	 99.754	 -0.266
61505	  0.007	 -0.159	  1.105	  0.853	  1.569	 -9.581	 -0.006	 -0.002	  0.002	 27.100	 99.743	  0.708
61555	  0.009	 -0.169	  1.101	  0.955	  1.506	 -9.546	  0.010	  0.025	  0.008	 27.100	 99.754	 -0.266
61605	  0.005	 -0.165	  1.100	  0.987	  1.521	 -9.576	 -0.010	 -0.011	  0.000	 27.100	 99.754	 -0.266
61655	  0.005	 -0.169	  1.097	  0.771	  1.587	 -9.573	 -0.000	  0.010	  0.004	 27.100	 99.743	  0.708
61705	  0.004	 -0.163	  1.098	  0.983	  1.521	 -9.608	  0.027	  0.055	  0.015	 27.100	 99.765	 -1.242
61755	  0.000	 -0.160	  1.102	  0.994	  1.509	 -9.569	  0.012	  0.027	  0.009	 27.100	 99.754	 -0.266
61805	  0.002	 -0.164	  1.098	  1.011	  1.479	 -9.603	 -0.006	 -0.004	  0.002	 27.100	 99.754	 -0.266
61855	  0.000	 -0.165	  1.095	  0.977	  1.512	 -9.563	 -0.009	 -0.010	  0.001	 27.100	 99.743	  0.708
61905	  0.003	 -0.167	  1.101	  0.812	  1.621	 -9.582	 -0.003	  0.002	  0.003	 27.100	 99.754	 -0.266
61955	  0.001	 -0.168	  1.097	  0.995	  1.441	 -9.559	  0.013	  0.027	  0.009	 27.100	 99.765	 -1.242
62005	  0.000	 -0.160	  1.099	  0.938	  1.514	 -9.613	  0.002	  0.005	  0.005	 27.100	 99.765	 -1.242
62055	  0.000	 -0.166	  1.102	  0.991	  1.487	 -9.572	 -0.005	 -0.008	  0.000	 27.100	 99.743	  0.708
62105	  0.001	 -0.160	  1.099	  1.080	  1.488	 -9.569	 -0.047	 -0.074	 -0.016	 27.100	 99.743	  0.708
62155	  0.004	 -0.161	  1.102	  0.918	  1.559	 -9.565	  0.047	  0.081	 -0.050	 27.100	 99.754	 -0.266
62205	  0.001	 -0.163	  1.101	  1.001	  1.475	 -9.603	  0.013	  0.029	 -0.145	 27.100	 99.743	  0.708
62255	 -0.001	 -0.159	  1.096	  0.845	  1.581	 -9.583	  0.024	  0.046	  0.011	 27.100	 99.758	 -0.621
62305	 -0.004	 -0.162	  1.106	  0.934	  1.502	 -9.548	  0.033	  0.057	  0.016	 27.100	 99.758	 -0.621
62355	 -0.007	 -0.159	  1.096	  1.287	  1.285	 -9.599	  0.010	  0.021	  0.008	 27.100	 99.743	  0.708
62405	 -0.008	 -0.161	  1.105	  1.070	  1.430	 -9.594	 -0.043	 -0.056	 -0.010	 27.100	 99.754	 -0.266
62455	 -0.004	 -0.157	  1.099	  0.934	  1.525	 -9.568	 -0.033	 -0.045	 -0.008	 27.100	 99.747	  0.353
62505	 -0.001	 -0.160	  1.101	  0.800	  1.575	 -9.595	 -0.021	 -0.029	 -0.004	 27.100	 99.743	  0.708
62555	  0.000	 -0.162	  1.101	  1.021	  1.473	 -9.607	  0.013	  0.025	  0.009	 27.100	 99.758	 -0.621
62605	  0.001	 -0.165	  1.098	  0.945	  1.505	 -9.561	 -0.017	 -0.017	 -0.000	 27.100	 99.758	 -0.621
62655	  0.002	 -0.164	  1.101	  1.097	  1.448	 -9.565	 -0.042	 -0.052	 -0.010	 27.100	 99.747	  0.353
62705	  0.007	 -0.169	  1.100	  0.798	  1.594	 -9.568	 -0.033	 -0.050	 -0.008	 27.100	 99.758	 -0.621
62755	  0.003	 -0.156	  1.098	  0.499	  1.798	 -9.589	  0.035	  0.082	  0.020	 27.100	 99.758	 -0.621
62805	  0.000	 -0.162	  1.102	  1.135	  1.408	 -9.556	  0.050	  0.096	  0.026	 27.100	 99.747	  0.353
62855	 -0.002	 -0.163	  1.103	  1.062	  1.457	 -9.585	 -0.019	 -0.023	 -0.003	 27.100	 99.758	 -0.621
62905	 -0.002	 -0.159	  1.100	  0.893	  1.540	 -9.582	  0.004	  0.014	  0.006	 27.100	 99.747	  0.353
62955	 -0.003	 -0.159	  1.106	  1.044	  1.446	 -9.600	 -0.007	 -0.002	  0.002	 27.100	 99.747	  0.353
63005	 -0.005	 -0.160	  1.102	  0.913	  1.521	 -9.561	 -0.011	 -0.012	 -0.000	 27.100	 99.747	  0.353
63055	 -0.002	 -0.166	  1.105	  0.951	  1.550	 -9.601	  0.003	  0.013	  0.005	 27.100	 99.747	  0.353
63105	 -0.002	 -0.160	  1.101	  0.965	  1.514	 -9.557	  0.015	  0.030	  0.009	 27.100	 99.751	 -0.001
63155	 -0.005	 -0.162	  1.101	  1.089	  1.433	 -9.584	  0.008	  0.021	  0.007	 27.100	 99.763	 -1.065
63205	 -0.004	 -0.156	  1.104	  1.088	  1.437	 -9.545	 -0.015	 -0.014	 -0.001	 27.100	 99.758	 -0.621
63255	 -0.003	 -0.158	  1.103	  0.778	  1.617	 -9.615	 -0.034	 -0.048	 -0.008	 27.100	 99.758	 -0.621
63305	 -0.004	 -0.160	  1.100	  0.820	  1.572	 -9.581	  0.017	  0.037	  0.012	 27.100	 99.751	 -0.001
63355	 -0.004	 -0.153	  1.102	  1.053	  1.442	 -9.606	  0.006	  0.016	  0.007	 27.100	 99.758	 -0.621
63405	 -0.003	 -0.162	  1.097	  0.886	  1.602	 -9.550	  0.016	  0.033	  0.010	 27.100	 99.751	 -0.001
63455	 -0.008	 -0.152	  1.103	  1.198	  1.358	 -9.633	  0.033	  0.063	  0.015	 27.100	 99.758	 -0.621
63505	 -0.005	 -0.162	  1.102	  1.025	  1.485	 -9.566	 -0.014	 -0.015	 -0.001	 27.100	 99.751	 -0.001
63555	 -0.004	 -0.159	  1.103	  0.960	  1.512	 -9.609	  0.006	  0.015	  0.006	 27.100	 99.751	 -0.001
63605	 -0.007	 -0.161	  1.103	  1.565	  1.083	 -9.618	 -0.048	 -0.067	 -0.012	 27.100	 99.758	 -0.621
63655	  0.002	 -0.163	  1.102	  0.612	  1.728	 -9.571	 -0.080	 -0.131	 -0.025	 27.100	 99.763	 -1.065
63705	  0.004	 -0.161	  1.099	  0.966	  1.621	 -9.501	 -0.036	 -0.070	 -0.015	 27.100	 99.751	 -0.001
63755	  0.009	 -0.163	  1.098	  0.734	  1.601	 -9.578	 -0.034	 -0.059	 -0.011	 27.100	 99.758	 -0.621
63805	  0.012	 -0.167	  1.095	  0.678	  1.709	 -9.582	 -0.027	 -0.051	 -0.010	 27.100	 99.751	 -0.001
63855	  0.014	 -0.164	  1.097	  0.826	  1.593	 -9.545	 -0.017	 -0.029	 -0.003	 27.100	 99.763	 -1.065
63905	  0.014	 -0.161	  1.097	  0.788	  1.583	 -9.613	 -0.023	 -0.041	 -0.008	 27.100	 99.751	 -0.001
63955	  0.016	 -0.167	  1.097	  0.839	  1.573	 -9.539	  0.022	  0.060	  0.014	 27.100	 99.751	 -0.001
64005	  0.014	 -0.168	  1.095	  0.757	  1.629	 -9.589	  0.004	  0.019	  0.007	 27.100	 99.751	 -0.001
64055	  0.014	 -0.165	  1.099	  1.122	  1.426	 -9.533	 -0.004	  0.002	 -0.012	 27.100	 99.751	 -0.001
64105	  0.016	 -0.157	  1.098	  0.816	  1.588	 -9.582	 -0.038	 -0.077	 -0.037	 27.100	 99.751	 -0.001
64155	  0.018	 -0.168	  1.096	  0.550	  1.708	 -9.621	 -0.012	 -0.022	 -0.022	 27.100	 99.747	  0.353
64206	  0.018	 -0.158	  1.097	  0.699	  1.676	 -9.570	  0.019	  0.053	  0.013	 27.100	 99.751	 -0.001
64255	  0.016	 -0.167	  1.094	  0.659	  1.659	 -9.579	  0.040	  0.100	  0.018	 27.100	 99.751	 -0.001
64306	  0.007	 -0.162	  1.101	  0.940	  1.511	 -9.536	  0.047	  0.104	  0.015	 27.100	 99.751	 -0.001
64355	  0.002	 -0.163	  1.102	  1.110	  1.416	 -9.537	  0.030	  0.067	  0.017	 27.100	 99.763	 -1.065
64406	  0.003	 -0.152	  1.099	  0.960	  1.512	 -9.588	  0.004	  0.016	  0.006	 27.100	 99.740	  0.973
64456	  0.002	 -0.161	  1.100	  0.916	  1.530	 -9.566	  0.007	  0.021	  0.007	 27.100	 99.751	 -0.001
64505	  0.000	 -0.155	  1.101	  1.043	  1.465	 -9.573	  0.002	  0.008	  0.004	 27.100	 99.751	 -0.001
64555	  0.000	 -0.162	  1.102	  1.044	  1.443	 -9.595	 -0.019	 -0.028	 -0.003	 27.200	 99.756	 -0.444
64606	  0.000	 -0.162	  1.097	  0.670	  1.669	 -9.626	  0.011	  0.028	  0.006	 27.100	 99.767	 -1.419
64656	 -0.005	 -0.160	  1.100	  0.775	  1.643	 -9.573	  0.097	  0.163	  0.024	 27.100	 99.740	  0.973
64706	 -0.011	 -0.160	  1.104	  1.266	  1.323	 -9.551	  0.087	  0.134	  0.033	 27.200	 99.751	 -0.001
64756	 -0.016	 -0.150	  1.107	  1.218	  1.289	 -9.597	  0.045	  0.061	  0.017	 27.100	 99.751	 -0.001
64806	 -0.016	 -0.155	  1.101	  1.341	  1.222	 -9.575	 -0.021	 -0.019	  0.006	 27.200	 99.756	 -0.444
64856	 -0.017	 -0.151	  1.106	  1.060	  1.470	 -9.594	 -0.045	 -0.048	 -0.009	 27.200	 99.756	 -0.444
64906	 -0.016	 -0.158	  1.108	  0.814	  1.596	 -9.589	  0.015	  0.023	  0.005	 27.200	 99.751	 -0.001
64956	 -0.019	 -0.148	  1.106	  1.307	  1.301	 -9.624	  0.066	  0.082	 -0.037	 27.200	 99.756	 -0.444
65006	 -0.025	 -0.158	  1.108	  1.220	  1.302	 -9.590	  0.050	  0.065	  0.008	 27.200	 99.756	 -0.444
65056	 -0.015	 -0.155	  1.097	  4.993	  3.741	 -7.365	 -0.185	 -0.790	  0.028	 27.200	 99.756	 -0.444
65106	  0.086	 -0.167	  1.101	  2.133	  1.972	 -8.493	 -0.263	 -2.816	  1.369	 27.200	 99.756	 -0.444
65156	  0.218	 -0.172	  1.099	 -3.296	  2.100	 -10.926	  0.573	 -1.028	  0.272	 27.200	 99.756	 -0.444
65206	  0.241	 -0.137	  1.113	 -1.888	  1.861	 -9.469	  0.880	  0.133	 -0.718	 27.200	 99.756	 -0.444
65256	  0.237	 -0.111	  1.135	 -1.469	 -0.911	 -10.413	  0.463	  0.161	 -0.262	 27.100	 99.740	  0.973
65306	  0.231	 -0.107	  1.136	 -0.446	  0.150	 -9.793	 -0.226	  0.008	  0.251	 27.200	 99.744	  0.618
65356	  0.228	 -0.115	  1.129	 -0.899	  0.807	 -9.716	 -0.263	  0.001	  0.201	 27.200	 99.756	 -0.444
65406	  0.230	 -0.121	  1.127	 -1.086	  0.839	 -9.732	 -0.176	  0.061	 -0.088	 27.200	 99.756	 -0.444
65456	  0.223	 -0.132	  1.118	 -1.074	  1.110	 -9.659	 -0.203	  0.171	 -0.177	 27.200	 99.756	 -0.444
65506	  0.208	 -0.139	  1.112	 -1.285	  0.978	 -9.831	 -0.306	  0.291	 -0.091	 27.200	 99.756	 -0.444
65556	  0.189	 -0.155	  1.110	 -0.751	  1.354	 -9.658	 -0.331	  0.406	 -0.014	 27.200	 99.744	  0.618
65606	  0.162	 -0.160	  1.100	 -0.180	  1.594	 -9.443	 -0.206	  0.333	 -0.087	 27.200	 99.744	  0.618
65656	  0.147	 -0.168	  1.101	 -0.225	  1.628	 -9.562	 -0.200	  0.220	 -0.073	 27.200	 99.756	 -0.444
65706	  0.136	 -0.173	  1.091	 -0.015	  1.705	 -9.538	 -0.215	  0.155	  0.004	 27.200	 99.749	  0.176
65756	  0.127	 -0.184	  1.086	 -0.851	  4.949	 -8.181	  0.003	  0.135	  0.030	 27.200	 99.756	 -0.444
65806	  0.126	 -0.179	  1.089	 -0.086	  1.689	 -9.628	 -0.003	  0.008	  0.006	 27.200	 99.760	 -0.798
65856	  0.124	 -0.182	  1.087	 -0.164	  1.760	 -9.578	 -0.008	  0.040	  0.016	 27.200	 99.756	 -0.444
65906	  0.123	 -0.182	  1.084	 -0.179	  1.702	 -9.654	 -0.010	  0.070	  0.029	 27.200	 99.756	 -0.444
65956	  0.119	 -0.171	  1.087	 -0.212	  1.759	 -9.608	 -0.012	  0.106	  0.028	 27.200	 99.749	  0.176
66006	  0.111	 -0.177	  1.085	  0.210	  1.752	 -9.556	 -0.008	  0.095	  0.020	 27.200	 99.756	 -0.444
66056	  0.109	 -0.184	  1.079	  0.359	  1.741	 -9.469	 -0.002	 -0.033	  0.003	 27.200	 99.744	  0.618
66106	  0.113	 -0.180	  1.085	 -0.057	  1.799	 -9.569	  0.005	 -0.130	  0.075	 27.200	 99.749	  0.176
66156	  0.122	 -0.176	  1.084	 -0.559	  1.693	 -9.740	 -0.001	 -0.026	  0.035	 27.200	 99.749	  0.176
66206	  0.117	 -0.184	  1.084	  0.237	  1.747	 -9.518	 -0.004	 -0.000	  0.005	 27.200	 99.749	  0.176
66256	  0.120	 -0.185	  1.079	 -0.335	  1.715	 -9.653	 -0.003	 -0.011	 -0.004	 27.200	 99.760	 -0.798
66306	  0.118	 -0.181	  1.085	 -0.683	  1.794	 -9.754	 -0.013	  0.115	 -0.002	 27.200	 99.760	 -0.798
66356	  0.108	 -0.180	  1.083	  0.227	  1.796	 -9.533	 -0.009	  0.174	 -0.167	 27.200	 99.749	  0.176
66406	  0.100	 -0.179	  1.084	  0.770	  1.689	 -9.423	  0.010	  0.119	 -0.004	 27.200	 99.749	  0.176
66456	  0.098	 -0.181	  1.085	 -0.072	  1.765	 -9.623	 -0.006	 -0.016	  0.000	 27.200	 99.749	  0.176
66506	  0.105	 -0.188	  1.081	  0.979	  1.614	 -9.396	  0.001	 -0.183	 -0.031	 27.200	 99.749	  0.176
66556	  0.140	 -0.182	  1.087	 -0.319	  2.467	 -9.358	  0.219	 -1.108	  0.559	 27.200	 99.749	  0.176
66606	  0.192	 -0.169	  1.087	 -2.017	  0.925	 -10.256	  0.276	 -0.552	  0.121	 27.200	 99.753	 -0.178
66656	  0.204	 -0.167	  1.095	 -1.210	  0.738	 -10.080	 -0.020	  0.035	 -0.041	 27.200	 99.749	  0.176
66706	  0.191	 -0.166	  1.092	 -0.878	  0.928	 -10.073	 -0.199	  0.369	 -0.089	 27.200	 99.749	  0.176
66756	  0.172	 -0.176	  1.089	 -0.319	  1.791	 -9.463	 -0.118	  0.302	  0.026	 27.200	 99.760	 -0.798
66805	  0.162	 -0.173	  1.084	  0.242	  1.877	 -9.359	 -0.016	  0.042	  0.010	 27.200	 99.737	  1.239
66855	  0.164	 -0.178	  1.089	 -0.683	  1.588	 -9.644	  0.026	 -0.078	 -0.015	 27.200	 99.742	  0.796
66905	  0.164	 -0.177	  1.087	 -0.527	  1.581	 -9.615	 -0.011	  0.026	  0.008	 27.200	 99.760	 -0.798
66955	  0.161	 -0.179	  1.087	 -0.661	  1.673	 -9.671	 -0.026	  0.072	  0.016	 27.200	 99.764	 -1.153
67005	  0.155	 -0.175	  1.082	 -0.824	  1.550	 -9.651	 -0.070	  0.238	  0.048	 27.200	 99.742	  0.796
67055	  0.137	 -0.179	  1.083	 -0.587	  1.712	 -9.707	 -0.076	  0.385	  0.077	 27.200	 99.749	  0.176
67105	  0.113	 -0.184	  1.084	  0.187	  1.884	 -9.417	 -0.028	  0.435	  0.082	 27.200	 99.764	 -1.153
67155	  0.094	 -0.189	  1.074	  0.848	  1.685	 -9.423	  0.010	  0.151	  0.031	 27.200	 99.764	 -1.153
67205	  0.094	 -0.187	  1.083	  0.360	  1.662	 -9.524	 -0.007	 -0.041	 -0.004	 27.200	 99.764	 -1.153
67255	  0.094	 -0.187	  1.085	 -0.481	  1.850	 -9.736	  0.001	  0.042	  0.010	 27.200	 99.753	 -0.178
67305	  0.089	 -0.187	  1.085	  0.091	  1.738	 -9.602	  0.013	  0.152	  0.031	 27.200	 99.742	  0.796
67355	  0.079	 -0.185	  1.082	  0.236	  1.709	 -9.630	  0.014	  0.161	  0.034	 27.200	 99.742	  0.796
67405	  0.072	 -0.187	  1.084	  0.320	  1.763	 -9.553	  0.017	  0.182	  0.037	 27.200	 99.737	  1.239
67455	  0.059	 -0.185	  1.081	  0.580	  1.724	 -9.560	  0.032	  0.178	  0.037	 27.200	 99.753	 -0.178
67505	  0.051	 -0.189	  1.079	  0.729	  1.576	 -9.537	  0.021	  0.102	  0.022	 27.200	 99.764	 -1.153
67555	  0.048	 -0.186	  1.082	  0.794	  1.597	 -9.546	 -0.005	 -0.007	  0.002	 27.200	 99.753	 -0.178
67605	  0.055	 -0.188	  1.085	  0.585	  1.706	 -9.552	 -0.024	 -0.090	 -0.015	 27.200	 99.753	 -0.178
67655	  0.058	 -0.186	  1.081	  0.378	  1.710	 -9.618	 -0.019	 -0.075	 -0.012	 27.200	 99.749	  0.176
67705	  0.061	 -0.184	  1.081	  0.193	  1.784	 -9.590	 -0.009	 -0.047	 -0.005	 27.200	 99.742	  0.796
67755	  0.061	 -0.187	  1.083	  0.374	  1.741	 -9.606	  0.008	  0.057	  0.013	 27.200	 99.753	 -0.178
67805	  0.058	 -0.188	  1.078	  0.539	  1.667	 -9.607	  0.007	  0.055	  0.012	 27.200	 99.742	  0.796
67855	  0.057	 -0.187	  1.087	  0.610	  1.691	 -9.547	 -0.002	  0.013	  0.005	 27.200	 99.753	 -0.178
67905	  0.054	 -0.187	  1.084	  0.365	  1.773	 -9.622	  0.011	  0.066	  0.017	 27.200	 99.753	 -0.178
67955	  0.055	 -0.186	  1.086	  1.109	  1.480	 -9.520	 -0.024	 -0.081	 -0.013	 27.200	 99.753	 -0.178
68005	  0.061	 -0.184	  1.086	  0.333	  1.704	 -9.620	 -0.027	 -0.124	 -0.021	 27.200	 99.742	  0.796
68055	  0.059	 -0.187	  1.084	  0.249	  1.801	 -9.591	  0.014	  0.092	  0.018	 27.200	 99.742	  0.796
68105	  0.059	 -0.185	  1.082	  0.614	  1.617	 -9.586	 -0.005	 -0.014	 -0.029	 27.200	 99.753	 -0.178
68155	  0.061	 -0.186	  1.087	  1.156	  1.494	 -9.472	 -0.018	 -0.083	 -0.106	 27.200	 99.757	 -0.533
68205	  0.074	 -0.183	  1.082	  0.894	  1.826	 -9.480	 -0.030	 -0.286	 -0.236	 27.200	 99.757	 -0.533
68255	  0.089	 -0.187	  1.087	 -0.679	  1.200	 -10.170	 -0.045	 -0.233	 -0.226	 27.200	 99.757	 -0.533
68305	  0.090	 -0.189	  1.075	  0.249	  1.344	 -11.021	 -0.306	  0.113	 -0.087	 27.200	 99.757	 -0.533
68355	  0.082	 -0.195	  1.054	  0.921	  2.455	 -9.072	 -0.224	  0.085	 -0.553	 27.200	 99.757	 -0.533
68405	  0.077	 -0.187	  1.041	  0.190	  2.860	 -9.019	  0.251	  0.181	 -0.645	 27.200	 99.757	 -0.533
68455	  0.063	 -0.165	  1.036	 -0.210	  2.134	 -8.998	  0.612	  0.284	 -0.586	 27.200	 99.757	 -0.533
68505	  0.062	 -0.139	  1.034	 -0.278	  1.955	 -9.214	  0.542	 -0.040	 -0.362	 27.200	 99.757	 -0.533
68555	  0.085	 -0.125	  1.027	 -0.330	  1.258	 -10.595	  0.572	 -0.615	  0.475	 27.200	 99.750	  0.087
68605	  0.112	 -0.108	  1.009	  0.394	  0.992	 -10.692	  0.487	 -0.338	  0.814	 27.200	 99.746	  0.441
68655	  0.118	 -0.108	  0.986	  0.110	  0.115	 -9.240	  0.307	  0.155	  0.590	 27.200	 99.746	  0.441
68705	  0.116	 -0.103	  0.968	 -0.022	  0.065	 -6.187	  0.253	 -0.247	 -0.009	 27.200	 99.757	 -0.533
68755	  0.129	 -0.090	  0.988	 -0.269	 -0.333	 -8.422	 -0.002	 -0.042	  0.361	 27.200	 99.757	 -0.533
68805	  0.140	 -0.102	  1.001	 -1.733	  2.064	 -16.304	 -0.432	 -0.448	  0.444	 27.200	 99.757	 -0.533
68855	  0.126	 -0.089	  0.976	  0.753	  1.405	 -3.684	  1.468	  0.456	  0.159	 27.200	 99.746	  0.441
68905	  0.132	 -0.051	  0.994	 -0.201	 -4.762	 -14.391	 -0.967	 -0.262	 -0.044	 27.200	 99.757	 -0.533
68955	  0.128	 -0.122	  0.958	 -1.408	 10.841	 -9.435	  0.329	  0.473	 -0.161	 27.200	 99.757	 -0.533
69005	  0.093	 -0.046	  0.943	  1.467	 -8.069	 -8.909	  0.817	  0.170	 -0.015	 27.200	 99.746	  0.441
69055	  0.124	 -0.094	  0.928	 -1.988	  7.475	 -1.774	  0.216	 -0.196	  0.268	 27.200	 99.746	  0.441
69105	  0.132	 -0.075	  0.953	 -0.192	 -5.202	 -19.064	 -1.083	 -1.118	  0.067	 27.200	 99.753	 -0.178
69155	  0.117	 -0.124	  0.936	 -0.115	  3.548	 -0.429	  0.589	  1.798	 -0.398	 27.200	 99.746	  0.441
69205	  0.146	 -0.106	  0.965	 -2.900	 -3.105	 -19.214	 -0.896	 -1.755	  0.439	 27.200	 99.761	 -0.887
69255	  0.129	 -0.122	  0.968	  4.688	  1.694	 -2.249	  0.816	  0.883	 -0.147	 27.200	 99.750	  0.087
69305	  0.167	 -0.114	  0.971	 -6.447	 -0.947	 -18.527	 -0.836	  0.237	  0.360	 27.200	 99.746	  0.441
69355	  0.105	 -0.099	  0.961	  4.739	 -1.040	 -2.870	  1.337	 -0.392	 -0.546	 27.200	 99.742	  0.796
69405	  0.142	 -0.124	  0.950	 -7.519	  4.277	 -12.857	 -1.228	  1.431	  0.351	 27.200	 99.761	 -0.887
69455	  0.070	 -0.088	  0.958	  6.730	 -1.894	 -2.144	  1.469	 -1.008	 -0.043	 27.200	 99.750	  0.087
69506	  0.108	 -0.116	  0.953	 -4.684	  2.386	 -11.580	 -1.270	  1.464	  0.375	 27.200	 99.761	 -0.887
69555	  0.097	 -0.064	  0.957	  0.811	 -4.776	 -13.778	  1.673	 -1.397	  0.688	 27.200	 99.773	 -1.950
69606	  0.083	 -0.087	  0.937	  4.064	  2.470	 -2.582	 -0.920	  0.912	 -0.482	 27.200	 99.746	  0.441
69655	  0.140	 -0.056	  0.951	 -7.320	 -6.797	 -20.847	 -0.012	 -0.636	  0.210	 27.200	 99.750	  0.087
69706	  0.077	 -0.091	  0.936	  5.806	  6.648	 -0.540	  0.301	  0.751	 -0.645	 27.200	 99.750	  0.087
69756	  0.142	 -0.036	  0.945	 -4.690	 -7.303	 -19.256	 -0.118	 -0.513	  0.875	 27.200	 99.761	 -0.887
69806	  0.084	 -0.086	  0.927	  3.427	  7.489	 -4.902	  0.036	  0.119	 -0.298	 27.200	 99.750	  0.087
69855	  0.144	 -0.022	  0.937	 -4.961	 -6.439	 -14.866	  0.444	 -0.752	  1.039	 27.200	 99.761	 -0.887
69906	  0.101	 -0.089	  0.932	  4.423	  5.791	 -6.560	 -1.322	  0.576	 -0.409	 27.200	 99.750	  0.087
69956	  0.137	 -0.046	  0.936	 -7.274	 -10.392	 -21.892	 -0.210	  1.021	  0.002	 27.200	 99.750	  0.087
70006	  0.111	 -0.076	  0.934	  0.018	  3.347	 -5.914	  1.280	 -1.788	 -0.228	 27.200	 99.750	  0.087
70056	  0.095	 -0.064	  0.933	 -2.281	 -0.288	 -9.919	 -0.416	  2.543	 -0.091	 27.200	 99.750	  0.087
70106	  0.081	 -0.023	  0.931	  2.293	 -1.411	 -4.322	  1.905	 -2.274	  1.241	 27.200	 99.761	 -0.887
70156	  0.119	 -0.056	  0.924	 -2.752	 -1.690	 -14.185	 -2.365	  1.454	 -0.535	 27.200	 99.743	  0.708
70206	  0.113	 -0.053	  0.913	  2.772	  2.710	  2.633	  2.794	 -1.250	  0.770	 27.200	 99.750	  0.087
70256	  0.096	 -0.058	  0.930	 -2.160	 -1.374	 -10.841	 -3.383	  1.432	 -1.335	 27.200	 99.750	  0.087
70306	  0.102	 -0.068	  0.938	 -0.883	  1.360	 -11.276	  1.877	 -0.900	  0.917	 27.200	 99.761	 -0.887
70356	  0.112	 -0.049	  0.934	 -0.157	 -0.467	 -6.933	 -0.179	  0.473	 -0.135	 27.200	 99.754	 -0.266
70406	  0.087	 -0.042	  0.944	  0.740	 -0.302	 -6.733	  0.123	  0.258	 -0.109	 27.200	 99.743	  0.708
70456	  0.091	 -0.037	  0.971	 -0.664	 -0.004	 -10.718	 -0.326	 -0.053	  0.082	 27.300	 99.754	 -0.266
70506	  0.082	 -0.032	  0.993	  0.860	  0.541	 -9.885	  0.106	  0.462	  0.101	 27.200	 99.754	 -0.266
70556	  0.072	 -0.027	  1.015	  1.231	 -0.375	 -10.321	  0.230	 -0.074	 -0.089	 27.200	 99.766	 -1.330
70606	  0.090	 -0.034	  1.030	 -1.599	 -0.873	 -12.052	 -0.008	 -0.316	  0.079	 27.300	 99.754	 -0.266
70656	  0.093	 -0.063	  1.027	 -0.716	 -0.721	 -10.627	 -0.459	 -0.155	  0.671	 27.200	 99.754	 -0.266
70706	  0.100	 -0.106	  1.000	  0.569	 -0.193	 -9.408	 -0.540	 -0.234	  1.210	 27.300	 99.754	 -0.266
70756	  0.110	 -0.140	  0.987	 -0.658	  0.216	 -9.803	 -0.315	 -0.077	  1.432	 27.300	 99.754	 -0.266
70806	  0.109	 -0.150	  0.975	  1.122	  0.073	 -6.969	  0.585	 -0.350	  1.185	 27.300	 99.754	 -0.266
70856	  0.120	 -0.126	  0.989	 -1.460	 -2.178	 -12.352	  0.730	 -0.042	  0.588	 27.300	 99.766	 -1.330
70906	  0.124	 -0.122	  0.984	 -0.469	 -2.600	 -10.720	 -0.359	 -0.119	  0.428	 27.300	 99.754	 -0.266
70956	  0.122	 -0.157	  0.973	 -0.509	 -0.942	 -10.473	 -1.155	  0.091	  0.299	 27.200	 99.750	  0.087
71006	  0.121	 -0.202	  0.942	 -0.590	  1.452	 -8.827	 -1.046	 -0.018	  0.488	 27.300	 99.754	 -0.266
71056	  0.117	 -0.230	  0.925	 -0.554	  1.567	 -9.230	 -0.440	  0.008	  0.706	 27.300	 99.743	  0.708
71105	  0.111	 -0.230	  0.926	  0.166	  1.535	 -8.833	  0.206	 -0.007	  0.664	 27.300	 99.754	 -0.266
71155	  0.112	 -0.215	  0.929	 -0.062	  0.899	 -9.740	  0.291	 -0.102	  0.482	 27.300	 99.754	 -0.266
71205	  0.114	 -0.212	  0.925	 -0.399	  0.773	 -9.910	  0.129	 -0.105	  0.129	 27.300	 99.743	  0.708
71255	  0.120	 -0.215	  0.932	 -1.212	  1.630	 -9.573	  0.025	 -0.124	  0.143	 27.300	 99.754	 -0.266
71305	  0.121	 -0.210	  0.924	 -0.464	  0.718	 -9.788	  0.231	 -0.068	  0.205	 27.300	 99.743	  0.708
71355	  0.122	 -0.208	  0.928	 -0.139	  0.194	 -9.960	  0.314	 -0.078	  0.259	 27.300	 99.743	  0.708
71405	  0.116	 -0.196	  0.933	 -1.517	 -0.049	 -9.947	  0.393	  0.220	 -0.022	 27.300	 99.743	  0.708
71455	  0.109	 -0.195	  0.932	  0.258	 -2.941	 -10.389	 -0.493	 -0.135	 -0.228	 27.300	 99.747	  0.353
71505	  0.123	 -0.233	  0.922	 -0.899	  0.041	 -10.269	 -1.312	 -0.182	 -0.453	 27.300	 99.747	  0.353
71555	  0.138	 -0.283	  0.890	 -0.154	 -1.202	 -10.919	 -1.952	  0.192	 -1.171	 27.300	 99.754	 -0.266
71605	  0.138	 -0.315	  0.851	 -1.712	  3.609	 -8.516	 -1.591	  0.508	 -0.924	 27.300	 99.754	 -0.266
71655	  0.125	 -0.320	  0.826	 -1.117	  4.239	 -7.559	 -0.238	  0.459	 -0.403	 27.300	 99.747	  0.353
71705	  0.116	 -0.298	  0.818	  0.253	  5.018	 -8.192	  0.254	  0.320	 -0.269	 27.300	 99.747	  0.353
71755	  0.108	 -0.258	  0.822	 -0.307	  2.180	 -9.875	  0.760	  0.246	 -0.273	 27.300	 99.754	 -0.266
71806	  0.098	 -0.230	  0.826	 -0.214	  2.870	 -9.390	  0.419	  0.187	 -0.319	 27.300	 99.743	  0.708
71856	  0.096	 -0.216	  0.821	 -0.028	  1.130	 -9.163	  0.048	  0.009	 -0.358	 27.300	 99.747	  0.353
71906	  0.104	 -0.211	  0.817	  0.078	  2.407	 -8.321	 -0.085	 -0.203	 -0.041	 27.300	 99.747	  0.353
71956	  0.121	 -0.209	  0.821	  0.189	  2.278	 -9.521	  0.062	 -0.316	  0.066	 27.300	 99.759	 -0.710
72006	  0.130	 -0.192	  0.824	 -0.256	  1.724	 -11.075	  0.235	  0.104	 -0.298	 27.300	 99.743	  0.708
72056	  0.123	 -0.175	  0.824	 -1.672	  2.062	 -10.120	  0.256	  0.276	 -0.280	 27.300	 99.747	  0.353
72105	  0.106	 -0.109	  0.833	  1.821	 -1.188	 -10.897	  1.276	 -0.006	  0.273	 27.300	 99.759	 -0.710
72155	  0.116	 -0.097	  0.839	 -0.411	  1.272	 -8.876	  0.449	 -0.245	  0.390	 27.300	 99.747	  0.353
72205	  0.123	 -0.088	  0.844	 -2.726	  3.339	 -8.625	  0.349	 -0.129	  0.469	 27.300	 99.759	 -0.710
72256	  0.129	 -0.062	  0.859	  0.832	 -1.544	 -10.733	  1.300	 -0.075	  0.677	 27.300	 99.754	 -0.266
72305	  0.140	 -0.052	  0.869	 -0.127	 -1.774	 -10.675	 -0.046	 -0.342	  0.457	 27.300	 99.747	  0.353
72356	  0.148	 -0.078	  0.872	 -1.262	 -0.530	 -10.340	 -0.437	 -0.061	  0.272	 27.300	 99.747	  0.353
72406	  0.142	 -0.109	  0.864	 -0.578	  0.755	 -9.581	 -0.344	  0.090	  0.198	 27.300	 99.759	 -0.710
72455	  0.133	 -0.129	  0.862	 -0.093	  1.008	 -9.531	 -0.039	  0.074	  0.071	 27.300	 99.763	 -1.065
72505	  0.127	 -0.142	  0.860	 -0.538	  1.069	 -9.962	  0.041	 -0.075	  0.012	 27.300	 99.759	 -0.710
72555	  0.124	 -0.159	  0.860	 -0.267	  1.074	 -10.405	  0.146	 -0.060	  0.117	 27.300	 99.752	 -0.090
72605	  0.117	 -0.180	  0.857	 -0.404	  1.028	 -10.290	  0.212	 -0.179	  0.215	 27.300	 99.747	  0.353
72655	  0.105	 -0.205	  0.844	 -1.049	  1.058	 -11.000	  0.089	  0.009	  0.040	 27.300	 99.747	  0.353
72705	  0.083	 -0.236	  0.825	 -0.431	  0.674	 -9.942	  0.194	  0.035	  0.390	 27.300	 99.747	  0.353
72755	  0.066	 -0.257	  0.795	  0.349	  0.608	 -10.154	  0.073	 -0.252	  0.513	 27.300	 99.752	 -0.090
72805	  0.049	 -0.285	  0.768	 -0.520	  0.375	 -10.009	  0.212	 -0.034	  0.438	 27.300	 99.752	 -0.090
72855	  0.021	 -0.299	  0.731	  0.096	  0.139	 -9.677	  0.200	  0.050	  0.508	 27.300	 99.752	 -0.090
72905	  0.002	 -0.313	  0.700	 -0.190	 -0.136	 -10.098	  0.159	 -0.190	  0.847	 27.300	 99.747	  0.353
72955	 -0.021	 -0.319	  0.667	 -0.400	  0.519	 -9.607	  0.164	 -0.048	  0.980	 27.300	 99.752	 -0.090
73005	 -0.048	 -0.320	  0.639	 -0.220	 -0.119	 -9.703	  0.259	  0.043	  1.010	 27.300	 99.752	 -0.090
73055	 -0.075	 -0.317	  0.604	  0.474	  0.240	 -9.274	  0.045	 -0.064	  0.937	 27.300	 99.752	 -0.090
73105	 -0.097	 -0.313	  0.576	 -0.208	  0.473	 -9.272	  0.104	 -0.111	  1.092	 27.300	 99.740	  0.973
73155	 -0.120	 -0.295	  0.543	 -0.149	  0.495	 -8.916	  0.223	 -0.022	  1.121	 27.300	 99.747	  0.353
73205	 -0.143	 -0.290	  0.515	 -0.036	 -0.092	 -9.503	  0.077	  0.090	  1.268	 27.300	 99.752	 -0.090
73255	 -0.169	 -0.278	  0.488	 -0.030	  0.523	 -9.379	 -0.068	  0.134	  1.429	 27.300	 99.752	 -0.090
73305	 -0.193	 -0.256	  0.458	  0.071	  0.123	 -9.772	 -0.024	  0.407	  1.596	 27.300	 99.763	 -1.065
73355	 -0.220	 -0.237	  0.435	  0.766	  0.217	 -9.831	 -0.031	  0.393	  1.587	 27.300	 99.752	 -0.090
73405	 -0.239	 -0.209	  0.400	  0.712	  0.179	 -9.903	  0.012	  0.256	  1.596	 27.300	 99.752	 -0.090
73455	 -0.246	 -0.182	  0.383	  0.280	 -0.336	 -9.774	  0.102	  0.120	  1.455	 27.300	 99.752	 -0.090
73505	 -0.249	 -0.155	  0.360	  0.084	 -1.408	 -10.041	 -0.021	  0.220	  1.193	 27.300	 99.752	 -0.090
73555	 -0.250	 -0.139	  0.342	 -0.320	 -2.127	 -10.788	 -0.216	  0.231	  0.895	 27.300	 99.752	 -0.090
73605	 -0.252	 -0.130	  0.325	 -0.962	 -1.883	 -11.191	 -0.515	  0.402	  0.780	 27.300	 99.752	 -0.090
73655	 -0.252	 -0.125	  0.316	 -0.711	 -0.684	 -10.563	 -0.690	  0.229	  0.757	 27.300	 99.752	 -0.090
73705	 -0.250	 -0.114	  0.307	 -1.571	  0.642	 -9.307	  0.146	  0.199	  0.575	 27.300	 99.752	 -0.090
73755	 -0.249	 -0.103	  0.304	 -1.632	 -1.101	 -10.676	  0.163	  0.274	  0.486	 27.300	 99.756	 -0.444
73805	 -0.249	 -0.090	  0.296	 -1.147	 -0.456	 -9.111	  0.137	  0.138	  0.375	 27.300	 99.752	 -0.090
73855	 -0.247	 -0.078	  0.293	 -0.715	 -1.201	 -8.846	  0.112	  0.047	  0.432	 27.300	 99.752	 -0.090
73905	 -0.240	 -0.066	  0.291	 -0.264	 -1.158	 -8.042	  0.199	 -0.020	  0.331	 27.300	 99.740	  0.973
73955	 -0.236	 -0.061	  0.290	 -0.591	 -1.701	 -8.371	  0.111	  0.042	  0.317	 27.300	 99.752	 -0.090
74005	 -0.235	 -0.048	  0.290	 -0.051	 -1.339	 -8.007	  0.114	  0.190	  0.265	 27.300	 99.763	 -1.065
74055	 -0.238	 -0.045	  0.280	  0.088	 -1.675	 -8.943	  0.052	  0.223	  0.246	 27.300	 99.756	 -0.444
74105	 -0.234	 -0.040	  0.282	  0.231	 -1.352	 -9.500	 -0.050	  0.020	  0.291	 27.300	 99.745	  0.530
74155	 -0.233	 -0.020	  0.279	  0.156	 -1.489	 -9.655	  0.165	  0.066	  0.311	 27.300	 99.749	  0.176
74205	 -0.233	 -0.018	  0.277	  0.494	 -1.603	 -9.720	  0.220	  0.364	  0.291	 27.300	 99.752	 -0.090
74255	 -0.235	 -0.011	  0.270	  0.852	 -1.458	 -10.499	  0.153	  0.417	  0.301	 27.300	 99.745	  0.530
74305	 -0.239	 -0.002	  0.263	  1.372	 -0.011	 -10.883	 -0.121	  0.331	  0.226	 27.300	 99.756	 -0.444
74355	 -0.235	 -0.003	  0.260	  1.811	 -0.244	 -11.449	 -0.222	 -0.170	  0.269	 27.300	 99.756	 -0.444
74405	 -0.225	 -0.005	  0.270	  0.413	  0.137	 -11.690	 -0.371	 -0.480	  0.145	 27.300	 99.756	 -0.444
74455	 -0.212	 -0.008	  0.276	  0.510	  0.471	 -10.481	 -0.356	 -0.375	  0.196	 27.300	 99.745	  0.530
74505	 -0.202	 -0.008	  0.277	  0.432	  0.242	 -9.400	 -0.348	 -0.382	  0.267	 27.300	 99.756	 -0.444
74555	 -0.193	 -0.012	  0.285	  0.445	  0.049	 -8.504	 -0.356	 -0.156	  0.252	 27.300	 99.745	  0.530
74605	 -0.186	 -0.019	  0.287	  1.043	  0.175	 -7.668	 -0.207	 -0.142	  0.140	 27.300	 99.749	  0.176
74655	 -0.181	 -0.016	  0.288	  0.834	  0.014	 -8.362	  0.118	 -0.263	  0.009	 27.300	 99.745	  0.530
74705	 -0.175	 -0.009	  0.281	  0.544	 -0.678	 -9.120	  0.520	 -0.089	 -0.038	 27.300	 99.745	  0.530
74755	 -0.172	 -0.002	  0.284	  0.620	 -1.097	 -9.904	  0.431	 -0.128	 -0.088	 27.300	 99.756	 -0.444
74805	 -0.167	  0.008	  0.282	  0.366	 -0.885	 -9.897	  0.393	 -0.091	 -0.143	 27.300	 99.756	 -0.444
74855	 -0.165	  0.015	  0.278	  0.377	 -0.616	 -9.802	  0.426	  0.074	 -0.335	 27.300	 99.756	 -0.444
74905	 -0.167	  0.007	  0.275	  0.013	 -0.403	 -10.330	  0.294	  0.009	 -0.658	 27.300	 99.767	 -1.419
74955	 -0.166	  0.010	  0.275	 -1.026	 -0.327	 -11.132	  0.285	 -0.129	 -0.811	 27.300	 99.749	  0.176
75005	 -0.164	  0.004	  0.276	 -0.989	 -0.620	 -12.237	 -0.132	 -0.159	 -0.771	 27.300	 99.745	  0.530
75055	 -0.159	 -0.013	  0.284	 -1.067	  0.494	 -11.413	 -0.479	 -0.276	 -0.679	 27.300	 99.745	  0.530
75105	 -0.159	 -0.025	  0.276	 -0.786	  0.763	 -9.852	 -0.369	 -0.162	 -0.672	 27.300	 99.745	  0.530
75155	 -0.157	 -0.030	  0.287	 -0.706	  0.289	 -8.521	 -0.200	 -0.083	 -0.615	 27.300	 99.734	  1.504
75205	 -0.154	 -0.040	  0.277	 -0.462	 -0.158	 -7.725	 -0.209	 -0.132	 -0.477	 27.300	 99.745	  0.530
75255	 -0.153	 -0.045	  0.283	 -0.029	 -0.409	 -7.458	 -0.006	  0.003	 -0.237	 27.300	 99.749	  0.176
75305	 -0.152	 -0.052	  0.283	  0.145	 -1.017	 -8.644	 -0.001	  0.082	  0.082	 27.300	 99.749	  0.176
75356	 -0.148	 -0.052	  0.280	  0.185	  0.029	 -8.673	  0.102	 -0.094	  0.119	 27.300	 99.749	  0.176
75406	 -0.141	 -0.047	  0.282	 -0.595	 -0.597	 -9.566	  0.351	 -0.138	  0.323	 27.300	 99.734	  1.504
75456	 -0.134	 -0.041	  0.273	 -0.563	 -0.817	 -10.018	  0.363	  0.048	  0.446	 27.300	 99.738	  1.150
75506	 -0.135	 -0.038	  0.276	  0.018	 -0.314	 -10.147	  0.295	  0.319	  0.430	 27.300	 99.760	 -0.798
75556	 -0.138	 -0.031	  0.273	 -0.207	 -0.548	 -10.529	  0.386	  0.470	  0.235	 27.300	 99.760	 -0.798
75606	 -0.140	 -0.033	  0.273	 -0.323	 -0.796	 -12.211	 -0.129	  0.526	  0.264	 27.300	 99.760	 -0.798
75656	 -0.140	 -0.040	  0.274	  0.616	  0.590	 -12.299	 -0.652	 -0.038	  0.346	 27.300	 99.745	  0.530
75706	 -0.134	 -0.049	  0.280	  0.712	  1.636	 -10.293	 -0.337	 -0.105	  0.305	 27.300	 99.749	  0.176
75756	 -0.130	 -0.047	  0.282	 -0.019	  0.144	 -10.087	 -0.127	 -0.108	  0.395	 27.300	 99.749	  0.176
75806	 -0.122	 -0.060	  0.289	  0.474	 -0.008	 -8.333	 -0.056	  0.065	  0.338	 27.300	 99.749	  0.176
75856	 -0.120	 -0.054	  0.291	  0.562	 -0.384	 -7.365	  0.074	 -0.066	  0.109	 27.300	 99.749	  0.176
75906	 -0.115	 -0.056	  0.292	  0.043	 -1.117	 -7.613	  0.307	 -0.009	  0.126	 27.300	 99.753	 -0.178
75956	 -0.112	 -0.058	  0.302	  0.415	 -1.547	 -8.557	  0.242	  0.027	  0.115	 27.300	 99.760	 -0.798
76006	 -0.110	 -0.056	  0.301	  0.583	 -1.471	 -9.218	  0.132	  0.014	  0.049	 27.300	 99.742	  0.796
76056	 -0.107	 -0.052	  0.309	  0.611	 -1.083	 -9.469	  0.099	  0.002	 -0.223	 27.300	 99.749	  0.176
76106	 -0.104	 -0.062	  0.311	  0.564	 -0.863	 -9.955	  0.119	 -0.003	 -0.518	 27.300	 99.742	  0.796
76156	 -0.102	 -0.067	  0.317	  0.245	 -0.928	 -11.204	 -0.027	 -0.086	 -0.458	 27.300	 99.742	  0.796
76206	 -0.093	 -0.077	  0.324	 -0.697	 -0.535	 -11.818	 -0.260	 -0.273	 -0.511	 27.300	 99.753	 -0.178
76256	 -0.090	 -0.090	  0.327	 -0.892	 -0.154	 -11.959	 -0.446	 -0.172	 -0.664	 27.300	 99.738	  1.150
76306	 -0.085	 -0.103	  0.338	 -1.488	  0.860	 -11.126	 -0.444	 -0.300	 -0.573	 27.300	 99.742	  0.796
76356	 -0.080	 -0.114	  0.344	 -1.740	  0.737	 -9.908	 -0.009	 -0.131	 -0.542	 27.300	 99.753	 -0.178
76406	 -0.077	 -0.116	  0.348	  0.291	 -0.013	 -9.441	  0.196	 -0.312	 -0.630	 27.300	 99.749	  0.176
76456	 -0.071	 -0.118	  0.356	 -1.023	  0.102	 -7.942	  0.241	 -0.802	 -0.340	 27.300	 99.753	 -0.178
76506	 -0.058	 -0.110	  0.367	 -1.275	 -0.616	 -8.182	  0.802	 -0.438	 -0.369	 27.300	 99.749	  0.176
76556	 -0.054	 -0.081	  0.374	 -1.687	 -1.367	 -8.761	  0.864	 -0.078	 -0.176	 27.300	 99.753	 -0.178
76606	 -0.060	 -0.075	  0.379	 -1.284	 -1.610	 -9.299	  0.468	  0.177	 -0.146	 27.300	 99.753	 -0.178
76656	 -0.075	 -0.059	  0.389	 -2.725	 -2.005	 -10.984	  0.304	  0.616	  0.050	 27.300	 99.753	 -0.178
76706	 -0.100	 -0.057	  0.389	 -0.552	 -2.188	 -11.665	 -0.134	  1.129	  0.340	 27.300	 99.742	  0.796
76756	 -0.128	 -0.058	  0.384	  1.440	 -1.878	 -10.298	 -0.582	  0.916	  0.020	 27.300	 99.753	 -0.178
76806	 -0.151	 -0.065	  0.381	  0.044	 -0.162	 -10.124	 -0.661	  0.839	  0.124	 27.300	 99.742	  0.796
76856	 -0.173	 -0.073	  0.375	  1.265	  0.241	 -9.155	 -0.660	  0.396	  0.170	 27.300	 99.742	  0.796
76906	 -0.183	 -0.083	  0.378	  1.881	  0.317	 -9.435	 -0.576	 -0.013	 -0.273	 27.300	 99.742	  0.796
76956	 -0.175	 -0.076	  0.375	  1.170	  1.672	 -8.113	  0.195	 -0.645	 -0.365	 27.300	 99.753	 -0.178
77006	 -0.164	 -0.069	  0.376	 -0.006	  1.263	 -10.304	  0.283	 -0.672	  0.405	 27.300	 99.742	  0.796
77056	 -0.156	 -0.052	  0.376	  0.333	 -0.008	 -9.310	  0.478	 -0.636	  0.448	 27.300	 99.742	  0.796
77106	 -0.141	 -0.040	  0.377	  0.492	 -0.307	 -7.825	  0.374	 -0.611	  0.232	 27.300	 99.753	 -0.178
77156	 -0.129	 -0.020	  0.374	 -0.670	 -0.421	 -8.426	  0.492	 -0.428	  0.395	 27.300	 99.757	 -0.533
77206	 -0.119	 -0.007	  0.364	 -0.361	 -1.021	 -9.793	  0.597	 -0.299	  0.406	 27.300	 99.742	  0.796
77256	 -0.118	  0.007	  0.361	 -0.105	 -0.827	 -9.636	  0.785	  0.134	  0.258	 27.300	 99.753	 -0.178
77306	 -0.127	  0.033	  0.345	  0.722	 -2.611	 -10.400	  0.604	  0.374	 -0.081	 27.300	 99.742	  0.796
77356	 -0.133	  0.029	  0.338	  0.777	 -2.939	 -10.206	  0.395	  0.071	 -0.234	 27.300	 99.746	  0.441
77406	 -0.133	  0.034	  0.336	 -0.327	 -2.425	 -10.129	 -0.022	 -0.221	 -0.076	 27.300	 99.742	  0.796
77456	 -0.133	  0.028	  0.328	 -1.426	 -2.663	 -10.855	 -0.387	  0.089	 -0.052	 27.300	 99.742	  0.796
77506	 -0.137	  0.011	  0.334	 -1.404	 -1.414	 -10.304	 -0.513	  0.582	  0.138	 27.300	 99.753	 -0.178
77556	 -0.152	  0.003	  0.323	 -0.520	 -1.266	 -9.758	 -0.515	  0.596	  0.029	 27.300	 99.757	 -0.533
77606	 -0.156	 -0.016	  0.325	 -0.994	 -0.781	 -9.717	 -0.389	  0.109	 -0.192	 27.300	 99.757	 -0.533
77656	 -0.160	 -0.026	  0.330	 -2.023	 -1.097	 -10.078	 -0.379	  0.142	 -0.072	 27.300	 99.753	 -0.178
77706	 -0.165	 -0.036	  0.323	 -1.578	 -0.595	 -9.495	 -0.312	  0.369	  0.058	 27.300	 99.746	  0.441
77756	 -0.173	 -0.038	  0.328	 -1.018	 -0.184	 -9.039	 -0.135	  0.496	  0.106	 27.400	 99.750	  0.087
77806	 -0.181	 -0.042	  0.328	 -0.224	 -0.404	 -8.906	  0.106	  0.278	 -0.066	 27.300	 99.746	  0.441
77856	 -0.181	 -0.033	  0.329	 -0.438	 -0.903	 -9.131	  0.103	  0.060	 -0.051	 27.300	 99.757	 -0.533
77906	 -0.184	 -0.038	  0.333	 -0.365	 -1.021	 -8.985	  0.126	  0.065	 -0.045	 27.300	 99.757	 -0.533
77956	 -0.188	 -0.037	  0.333	 -0.281	 -1.473	 -9.190	  0.050	  0.117	 -0.078	 27.300	 99.757	 -0.533
78006	 -0.193	 -0.037	  0.339	 -0.007	 -1.697	 -9.511	 -0.131	  0.234	  0.015	 27.300	 99.746	  0.441
78056	 -0.199	 -0.038	  0.343	  0.537	 -0.903	 -9.135	 -0.223	  0.172	 -0.056	 27.300	 99.746	  0.441
78106	 -0.207	 -0.038	  0.353	  0.835	 -1.098	 -9.646	 -0.112	  0.159	 -0.141	 27.300	 99.746	  0.441
78156	 -0.212	 -0.043	  0.360	  0.129	 -1.096	 -11.507	 -0.400	  0.103	 -0.103	 27.300	 99.757	 -0.533
78206	 -0.222	 -0.046	  0.370	  1.162	  1.587	 -9.816	 -0.371	  0.085	  0.069	 27.300	 99.746	  0.441
78256	 -0.224	 -0.041	  0.387	  1.024	  0.832	 -10.217	 -0.046	 -0.343	 -0.406	 27.400	 99.746	  0.441
78306	 -0.220	 -0.035	  0.405	  0.353	  0.375	 -10.106	 -0.073	 -0.532	 -0.430	 27.300	 99.746	  0.441
78356	 -0.213	 -0.032	  0.417	  0.029	  0.270	 -9.617	 -0.120	 -0.317	 -0.497	 27.300	 99.735	  1.416
78406	 -0.221	 -0.013	  0.435	  0.019	  0.111	 -9.002	  0.044	  0.049	 -0.575	 27.300	 99.746	  0.441
78456	 -0.228	 -0.010	  0.448	  0.405	 -0.552	 -9.095	  0.158	  0.065	 -0.798	 27.300	 99.746	  0.441
78506	 -0.240	 -0.004	  0.461	 -0.041	 -0.619	 -9.009	  0.164	  0.017	 -1.057	 27.300	 99.746	  0.441
78556	 -0.254	  0.001	  0.480	 -0.127	 -0.734	 -9.320	  0.037	  0.183	 -1.331	 27.400	 99.739	  1.062
78606	 -0.277	 -0.009	  0.490	 -0.203	 -0.217	 -9.499	 -0.175	  0.476	 -1.517	 27.400	 99.739	  1.062
78656	 -0.311	 -0.018	  0.510	  0.688	  1.201	 -9.323	 -0.095	  0.737	 -1.822	 27.300	 99.746	  0.441
78706	 -0.348	 -0.048	  0.514	  0.781	  1.163	 -10.164	 -0.151	  0.832	 -1.859	 27.400	 99.746	  0.441
78756	 -0.378	 -0.070	  0.524	  2.305	  2.019	 -13.705	 -0.173	  0.549	 -1.431	 27.300	 99.746	  0.441
78806	 -0.369	 -0.125	  0.542	  0.359	  6.262	 -6.941	  0.041	 -0.594	 -1.384	 27.300	 99.746	  0.441
78856	 -0.358	 -0.116	  0.553	  1.082	  0.223	 -10.794	  1.080	 -0.148	 -1.548	 27.400	 99.739	  1.062
78906	 -0.356	 -0.120	  0.565	  0.711	 -1.015	 -10.904	  0.171	 -0.121	 -0.929	 27.300	 99.746	  0.441
78956	 -0.350	 -0.131	  0.578	  0.491	  1.460	 -9.341	 -0.280	 -0.528	 -0.464	 27.400	 99.762	 -0.975
79006	 -0.343	 -0.127	  0.585	  0.964	  0.291	 -9.718	  0.403	  0.120	  0.024	 27.400	 99.750	  0.087
79056	 -0.352	 -0.116	  0.586	  1.649	 -0.573	 -8.709	  0.010	  0.362	 -0.049	 27.400	 99.750	  0.087
79106	 -0.368	 -0.120	  0.580	  1.661	 -0.642	 -8.483	 -0.160	  0.314	 -0.153	 27.400	 99.739	  1.062
79156	 -0.373	 -0.134	  0.586	  1.356	 -0.938	 -9.066	 -0.545	  0.146	 -0.000	 27.400	 99.750	  0.087
79206	 -0.378	 -0.152	  0.598	  1.568	  0.632	 -8.860	 -0.361	 -0.040	  0.004	 27.400	 99.750	  0.087
79256	 -0.366	 -0.157	  0.610	  0.986	  0.930	 -9.360	 -0.183	 -0.308	 -0.044	 27.400	 99.750	  0.087
79306	 -0.357	 -0.173	  0.625	  0.720	  1.250	 -10.091	 -0.090	 -0.287	  0.052	 27.400	 99.750	  0.087
79356	 -0.343	 -0.172	  0.629	  0.127	  2.011	 -9.647	 -0.126	  0.023	  0.191	 27.400	 99.750	  0.087
79406	 -0.345	 -0.180	  0.632	  0.455	  1.668	 -10.039	 -0.199	  0.095	  0.247	 27.400	 99.750	  0.087
79456	 -0.348	 -0.185	  0.632	  0.943	  2.155	 -9.927	 -0.020	  0.185	 -0.083	 27.400	 99.750	  0.087
79505	 -0.355	 -0.192	  0.627	  0.456	  1.861	 -10.001	  0.072	  0.333	 -0.101	 27.400	 99.739	  1.062
79555	 -0.366	 -0.188	  0.618	  1.349	  1.454	 -9.986	  0.080	  0.226	  0.123	 27.400	 99.739	  1.062
79605	 -0.372	 -0.175	  0.614	  1.502	  1.363	 -10.051	  0.404	  0.078	  0.103	 27.400	 99.739	  1.062
79655	 -0.374	 -0.158	  0.613	  1.665	  0.597	 -9.875	  0.444	  0.111	  0.030	 27.400	 99.739	  1.062
79705	 -0.378	 -0.149	  0.615	  2.101	 -1.180	 -9.866	 -0.075	 -0.059	 -0.193	 27.400	 99.739	  1.062
79755	 -0.377	 -0.169	  0.613	  1.888	 -0.336	 -9.499	 -0.910	  0.312	 -0.114	 27.400	 99.750	  0.087
79805	 -0.398	 -0.189	  0.595	  1.789	  1.618	 -8.072	 -0.406	  0.748	  0.362	 27.400	 99.750	  0.087
79855	 -0.423	 -0.189	  0.577	  2.520	  0.317	 -9.676	 -0.428	  0.812	  0.425	 27.400	 99.750	  0.087
79905	 -0.449	 -0.203	  0.557	  3.292	  1.879	 -9.262	 -0.570	  0.591	 -0.013	 27.400	 99.743	  0.708
79956	 -0.449	 -0.220	  0.556	  3.233	  1.241	 -10.201	 -0.307	 -0.444	 -0.384	 27.400	 99.750	  0.087
80005	 -0.428	 -0.235	  0.564	  1.970	  2.104	 -9.022	 -0.027	 -0.315	 -0.253	 27.400	 99.750	  0.087
80055	 -0.428	 -0.233	  0.566	  1.577	  1.439	 -8.787	  0.116	  0.069	  0.174	 27.400	 99.739	  1.062
80105	 -0.435	 -0.220	  0.561	  1.421	  1.505	 -8.696	  0.136	  0.255	  0.880	 27.400	 99.750	  0.087
80155	 -0.452	 -0.191	  0.557	  1.929	  2.159	 -8.366	  0.628	  0.546	  1.365	 27.400	 99.743	  0.708
80205	 -0.434	 -0.162	  0.567	  3.034	  0.498	 -9.329	  0.011	 -0.782	  0.229	 27.400	 99.755	 -0.355
80255	 -0.413	 -0.187	  0.581	  4.026	 -0.279	 -9.542	 -0.985	 -0.895	 -1.070	 27.400	 99.743	  0.708
80305	 -0.379	 -0.251	  0.588	  1.481	  2.171	 -8.515	 -1.232	 -0.318	 -1.206	 27.400	 99.759	 -0.710
80355	 -0.377	 -0.293	  0.581	  0.456	  3.242	 -8.395	 -0.231	  0.622	 -0.389	 27.400	 99.743	  0.708
80405	 -0.365	 -0.305	  0.580	 -1.510	  3.509	 -9.313	 -0.152	  0.089	 -0.241	 27.400	 99.755	 -0.355
80455	 -0.356	 -0.305	  0.584	  2.746	  2.122	 -9.115	  0.367	 -0.142	 -0.200	 27.400	 99.755	 -0.355
80505	 -0.360	 -0.292	  0.593	  0.691	  2.652	 -8.786	  0.706	  0.327	  0.203	 27.400	 99.755	 -0.355
80556	 -0.376	 -0.254	  0.586	 -1.606	  2.677	 -8.110	  1.263	  0.809	  0.769	 27.400	 99.766	 -1.330
80605	 -0.421	 -0.184	  0.572	  0.843	  1.645	 -7.503	  2.158	  1.382	  1.401	 27.400	 99.755	 -0.355
80656	 -0.464	 -0.070	  0.536	  2.848	 -2.321	 -12.463	  2.502	  1.545	  1.620	 27.400	 99.739	  1.062
80705	 -0.507	 -0.001	  0.494	  6.087	 -3.101	 -9.197	  1.188	  1.017	  0.649	 27.400	 99.743	  0.708
80755	 -0.517	  0.016	  0.478	  7.835	 -8.923	 -9.607	 -0.201	 -0.051	 -0.422	 27.400	 99.759	 -0.710
80805	 -0.512	 -0.020	  0.482	  4.154	 -2.388	 -8.963	 -1.065	 -0.588	 -0.701	 27.400	 99.755	 -0.355
80855	 -0.487	 -0.079	  0.517	  4.562	 -0.661	 -8.114	 -1.368	 -1.193	 -1.011	 27.400	 99.743	  0.708
80905	 -0.443	 -0.131	  0.554	  2.492	  0.434	 -9.062	 -1.066	 -1.906	 -0.940	 27.400	 99.743	  0.708
80956	 -0.387	 -0.175	  0.588	  0.367	  1.160	 -9.090	 -0.388	 -1.045	 -0.459	 27.400	 99.755	 -0.355
81006	 -0.362	 -0.184	  0.599	  1.016	  1.091	 -8.784	  0.227	 -0.530	 -0.233	 27.400	 99.755	 -0.355
81056	 -0.348	 -0.175	  0.604	  1.676	  0.236	 -8.728	 -0.065	 -0.531	 -0.225	 27.400	 99.755	 -0.355
81106	 -0.315	 -0.175	  0.617	  0.132	 -0.951	 -11.883	 -0.027	 -0.998	 -0.042	 27.400	 99.755	 -0.355
81156	 -0.292	 -0.208	  0.629	  1.348	  0.128	 -11.637	 -0.909	 -0.732	 -0.234	 27.400	 99.759	 -0.710
81206	 -0.269	 -0.249	  0.621	 -1.351	  1.999	 -9.001	 -0.857	 -0.435	 -0.469	 27.400	 99.743	  0.708
81256	 -0.263	 -0.265	  0.626	 -0.447	  2.813	 -10.156	 -0.122	  0.010	  0.151	 27.400	 99.755	 -0.355
81306	 -0.265	 -0.265	  0.621	  0.367	  0.715	 -9.959	 -0.123	 -0.023	  0.078	 27.400	 99.748	  0.264
81356	 -0.265	 -0.266	  0.621	 -0.311	  2.259	 -9.225	  0.100	 -0.072	  0.175	 27.400	 99.748	  0.264
81406	 -0.271	 -0.253	  0.625	 -0.710	  0.887	 -9.790	  0.263	  0.193	  0.767	 27.400	 99.748	  0.264
81456	 -0.286	 -0.229	  0.623	  0.880	  2.129	 -9.136	  0.787	  0.097	  0.415	 27.400	 99.748	  0.264
81506	 -0.291	 -0.199	  0.629	  0.612	  0.880	 -8.973	  0.823	 -0.030	  0.511	 27.400	 99.759	 -0.710
81556	 -0.291	 -0.182	  0.631	  0.673	  0.720	 -9.227	 -0.244	 -0.394	 -0.096	 27.400	 99.759	 -0.710
81606	 -0.265	 -0.204	  0.636	  0.347	  0.732	 -8.806	 -0.516	 -0.843	 -0.335	 27.400	 99.748	  0.264
81656	 -0.232	 -0.212	  0.650	  1.389	  2.073	 -3.082	  0.467	 -1.668	 -0.306	 27.400	 99.748	  0.264
81706	 -0.171	 -0.183	  0.665	 -5.542	 -0.199	 -17.610	 -0.557	 -0.080	  1.047	 27.400	 99.748	  0.264
81756	 -0.182	 -0.184	  0.664	  3.892	 -1.319	 -12.912	 -0.189	 -0.118	 -0.258	 27.400	 99.748	  0.264
81806	 -0.185	 -0.187	  0.665	 -1.652	  0.417	 -10.156	  0.081	  0.294	  0.054	 27.400	 99.748	  0.264
81856	 -0.198	 -0.190	  0.661	  0.015	  0.785	 -9.499	  0.066	  0.340	  0.012	 27.400	 99.759	 -0.710
81906	 -0.208	 -0.184	  0.661	 -1.067	  0.182	 -8.983	  0.359	  0.409	 -0.027	 27.400	 99.752	 -0.090
81956	 -0.233	 -0.170	  0.648	 -0.943	  0.352	 -9.285	  0.329	  0.838	 -0.123	 27.400	 99.748	  0.264
82006	 -0.261	 -0.161	  0.639	 -2.916	  0.501	 -9.161	  0.719	  0.721	 -0.226	 27.400	 99.759	 -0.710
82056	 -0.288	 -0.141	  0.631	  0.747	 -1.034	 -9.085	  0.677	  0.613	  0.054	 27.400	 99.748	  0.264
82106	 -0.311	 -0.124	  0.618	  0.681	 -1.301	 -10.918	  0.154	  0.452	  0.084	 27.400	 99.748	  0.264
82156	 -0.323	 -0.128	  0.619	  0.852	 -0.567	 -9.939	 -0.270	  0.129	 -0.128	 27.400	 99.748	  0.264
82206	 -0.322	 -0.142	  0.618	  0.368	 -0.425	 -9.574	 -0.472	 -0.114	 -0.135	 27.400	 99.752	 -0.090
82256	 -0.315	 -0.159	  0.618	  0.375	 -3.369	 -8.989	 -0.389	 -0.238	 -0.167	 27.400	 99.763	 -1.065
82306	 -0.312	 -0.178	  0.621	 -0.182	  0.399	 -9.456	 -0.362	  0.111	 -0.015	 27.400	 99.752	 -0.090
82356	 -0.309	 -0.183	  0.618	  0.080	 -0.585	 -10.673	 -0.300	 -0.050	 -0.029	 27.400	 99.759	 -0.710
82406	 -0.308	 -0.195	  0.615	 -0.491	  0.896	 -9.651	 -0.300	 -0.020	  0.144	 27.400	 99.759	 -0.710
82456	 -0.308	 -0.201	  0.617	  0.174	  0.410	 -9.827	 -0.161	 -0.015	  0.014	 27.400	 99.748	  0.264
82506	 -0.306	 -0.197	  0.616	  0.172	  0.584	 -9.607	 -0.221	 -0.019	  0.123	 27.400	 99.748	  0.264
82556	 -0.308	 -0.209	  0.620	  0.125	  0.878	 -9.628	 -0.157	 -0.024	  0.150	 27.400	 99.759	 -0.710
82606	 -0.310	 -0.209	  0.619	  0.333	  0.009	 -9.917	 -0.103	 -0.012	  0.041	 27.400	 99.752	 -0.090
82656	 -0.306	 -0.214	  0.620	  0.029	  0.616	 -9.787	 -0.255	 -0.016	  0.134	 27.400	 99.763	 -1.065
82706	 -0.304	 -0.222	  0.621	  0.128	  0.480	 -9.843	 -0.322	 -0.024	  0.183	 27.400	 99.752	 -0.090
82756	 -0.308	 -0.226	  0.616	  0.245	  1.570	 -9.401	 -0.283	 -0.017	  0.147	 27.400	 99.752	 -0.090
82806	 -0.307	 -0.228	  0.618	  0.191	  1.476	 -9.500	  0.102	  0.013	 -0.061	 27.400	 99.741	  0.885
82856	 -0.309	 -0.226	  0.619	  0.289	  0.882	 -9.707	  0.193	  0.013	 -0.103	 27.400	 99.741	  0.885
82906	 -0.305	 -0.220	  0.616	  0.017	  0.680	 -9.805	  0.134	  0.016	 -0.077	 27.400	 99.752	 -0.090
82956	 -0.308	 -0.211	  0.619	  0.076	  0.511	 -9.856	 -0.040	 -0.002	  0.030	 27.400	 99.745	  0.530
83006	 -0.308	 -0.224	  0.619	 -0.035	  0.786	 -9.724	 -0.183	 -0.007	  0.121	 27.400	 99.752	 -0.090
83056	 -0.306	 -0.223	  0.617	 -0.315	  0.199	 -10.156	 -0.484	  0.068	  0.198	 27.400	 99.741	  0.885
83106	 -0.311	 -0.251	  0.617	  0.578	  0.789	 -9.678	 -0.917	  0.201	  0.225	 27.400	 99.752	 -0.090
83156	 -0.308	 -0.275	  0.609	  2.211	  2.959	 -8.407	 -0.391	 -0.280	 -0.427	 27.400	 99.741	  0.885
83206	 -0.299	 -0.290	  0.609	  0.788	  1.261	 -9.836	 -0.048	  0.046	  0.018	 27.400	 99.745	  0.530
83256	 -0.299	 -0.285	  0.608	 -2.120	  2.944	 -9.295	 -0.131	 -0.004	 -0.008	 27.400	 99.752	 -0.090
83306	 -0.299	 -0.285	  0.609	 -0.110	  2.007	 -9.493	  0.090	  0.010	 -0.035	 27.400	 99.752	 -0.090
83356	 -0.297	 -0.287	  0.610	  0.064	  1.430	 -9.744	 -0.070	  0.005	  0.048	 27.400	 99.730	  1.859
83406	 -0.299	 -0.288	  0.609	  0.216	  2.100	 -9.449	 -0.022	  0.000	  0.013	 27.400	 99.752	 -0.090
83456	 -0.299	 -0.292	  0.604	 -1.006	  2.172	 -9.812	 -0.003	 -0.008	 -0.007	 27.400	 99.752	 -0.090
83506	 -0.301	 -0.290	  0.611	 -0.069	  2.028	 -9.650	  0.006	  0.031	  0.009	 27.400	 99.752	 -0.090
83556	 -0.304	 -0.288	  0.611	 -0.052	  1.959	 -9.605	  0.014	  0.122	  0.024	 27.400	 99.745	  0.530
83606	 -0.308	 -0.285	  0.609	  0.055	  1.867	 -9.618	  0.018	  0.199	  0.039	 27.400	 99.745	  0.530
83656	 -0.316	 -0.286	  0.602	  0.175	  1.906	 -9.571	  0.026	  0.266	  0.052	 27.400	 99.745	  0.530
83706	 -0.329	 -0.282	  0.604	  0.600	  2.081	 -9.408	  0.069	  0.320	  0.065	 27.400	 99.752	 -0.090
83756	 -0.342	 -0.282	  0.602	  0.712	  1.840	 -9.581	  0.085	  0.298	  0.061	 27.400	 99.756	 -0.444
83806	 -0.350	 -0.279	  0.596	  1.019	  1.721	 -9.505	  0.075	  0.191	  0.043	 27.400	 99.745	  0.530
83856	 -0.356	 -0.277	  0.597	  1.009	  1.646	 -9.550	  0.033	  0.086	  0.021	 27.400	 99.756	 -0.444
83906	 -0.355	 -0.274	  0.594	  1.035	  1.658	 -9.557	 -0.006	 -0.007	  0.001	 27.400	 99.756	 -0.444
83956	 -0.353	 -0.275	  0.597	  0.920	  1.780	 -9.542	 -0.025	 -0.052	 -0.010	 27.400	 99.756	 -0.444
84006	 -0.352	 -0.267	  0.600	  0.886	  1.714	 -9.567	 -0.044	 -0.091	 -0.017	 27.400	 99.756	 -0.444
84056	 -0.348	 -0.275	  0.596	  0.796	  1.829	 -9.499	 -0.053	 -0.132	 -0.024	 27.400	 99.745	  0.530
84106	 -0.343	 -0.280	  0.601	  0.620	  1.918	 -9.506	 -0.049	 -0.144	 -0.025	 27.400	 99.745	  0.530
84156	 -0.337	 -0.280	  0.603	  0.467	  1.906	 -9.532	 -0.031	 -0.104	 -0.017	 27.500	 99.760	 -0.798
84206	 -0.333	 -0.283	  0.602	  0.370	  1.891	 -9.599	 -0.013	 -0.040	 -0.006	 27.400	 99.756	 -0.444
84256	 -0.333	 -0.279	  0.605	  0.456	  1.872	 -9.554	  0.003	  0.029	  0.008	 27.400	 99.756	 -0.444
84306	 -0.334	 -0.281	  0.601	  0.530	  1.858	 -9.561	  0.012	  0.061	  0.015	 27.400	 99.745	  0.530
84356	 -0.337	 -0.282	  0.594	  0.609	  1.847	 -9.535	  0.016	  0.079	  0.017	 27.400	 99.745	  0.530
84406	 -0.340	 -0.280	  0.603	  0.703	  1.829	 -9.535	  0.016	  0.068	  0.016	 27.400	 99.756	 -0.444
84456	 -0.341	 -0.273	  0.601	  0.881	  1.914	 -9.477	  0.014	  0.015	  0.007	 27.400	 99.745	  0.530
84506	 -0.344	 -0.282	  0.601	  0.632	  1.495	 -9.739	 -0.018	 -0.020	 -0.002	 27.500	 99.756	 -0.444
84556	 -0.340	 -0.280	  0.596	  0.651	  1.917	 -9.498	 -0.012	 -0.022	 -0.002	 27.500	 99.749	  0.176
84606	 -0.342	 -0.278	  0.598	  0.582	  1.853	 -9.536	 -0.005	 -0.001	  0.002	 27.400	 99.749	  0.176
84656	 -0.338	 -0.283	  0.598	  0.641	  1.791	 -9.605	  0.001	  0.009	  0.004	 27.400	 99.756	 -0.444
84706	 -0.341	 -0.286	  0.600	  0.682	  1.844	 -9.489	 -0.001	  0.002	  0.002	 27.400	 99.745	  0.530
84756	 -0.338	 -0.281	  0.597	  0.652	  1.843	 -9.511	 -0.003	  0.003	  0.003	 27.400	 99.745	  0.530
84806	 -0.338	 -0.282	  0.597	  0.625	  1.849	 -9.538	 -0.005	  0.002	  0.002	 27.500	 99.760	 -0.798
84856	 -0.340	 -0.278	  0.597	  0.679	  1.790	 -9.590	 -0.004	  0.002	  0.003	 27.400	 99.756	 -0.444
84906	 -0.342	 -0.280	  0.600	  0.579	  1.741	 -9.601	 -0.006	  0.003	  0.004	 27.400	 99.745	  0.530
84956	 -0.342	 -0.280	  0.598	  0.705	  1.943	 -9.484	 -0.001	  0.003	  0.003	 27.500	 99.749	  0.176
85006	 -0.339	 -0.280	  0.598	  0.605	  1.708	 -9.636	 -0.007	  0.003	  0.004	 27.500	 99.745	  0.530
85056	 -0.341	 -0.281	  0.599	  0.686	  1.823	 -9.476	  0.002	  0.003	  0.002	 27.400	 99.745	  0.530
85106	 -0.340	 -0.283	  0.594	  0.637	  1.851	 -9.534	 -0.003	 -0.000	  0.003	 27.500	 99.760	 -0.798
85156	 -0.342	 -0.282	  0.601	  0.703	  1.867	 -9.610	 -0.006	  0.005	  0.004	 27.500	 99.738	  1.150
85206	 -0.342	 -0.280	  0.598	  0.644	  1.792	 -9.579	 -0.004	  0.001	  0.003	 27.500	 99.745	  0.530
85256	 -0.340	 -0.276	  0.599	  0.707	  2.073	 -9.396	  0.001	  0.007	  0.005	 27.500	 99.749	  0.176
85306	 -0.342	 -0.278	  0.603	  0.634	  1.785	 -9.612	 -0.002	 -0.004	  0.001	 27.500	 99.749	  0.176
85356	 -0.339	 -0.281	  0.598	  1.479	  1.806	 -9.388	 -0.006	 -0.017	 -0.250	 27.500	 99.738	  1.150
85406	 -0.333	 -0.289	  0.599	  0.746	  1.908	 -9.474	 -0.008	 -0.070	 -0.713	 27.500	 99.749	  0.176
85456	 -0.326	 -0.292	  0.601	  0.321	  2.181	 -9.495	  0.036	  0.171	 -0.752	 27.500	 99.749	  0.176
85506	 -0.320	 -0.313	  0.593	  0.688	  1.861	 -9.592	  0.040	  0.220	 -0.970	 27.500	 99.749	  0.176
85556	 -0.313	 -0.317	  0.586	  0.535	  1.857	 -9.423	  0.059	  0.220	 -1.123	 27.500	 99.738	  1.150
85606	 -0.303	 -0.343	  0.579	  0.568	  1.931	 -9.491	  0.076	  0.296	 -1.230	 27.500	 99.749	  0.176
85656	 -0.296	 -0.358	  0.576	  0.498	  1.980	 -9.306	  0.091	  0.340	 -1.272	 27.500	 99.749	  0.176
85706	 -0.287	 -0.370	  0.573	  0.471	  1.760	 -9.534	  0.123	  0.333	 -1.300	 27.500	 99.760	 -0.798
85756	 -0.273	 -0.382	  0.567	  0.345	  1.379	 -9.700	  0.072	  0.260	 -1.202	 27.500	 99.749	  0.176
85806	 -0.263	 -0.399	  0.566	  0.302	  1.326	 -9.807	  0.064	  0.201	 -1.058	 27.500	 99.760	 -0.798
85856	 -0.252	 -0.407	  0.561	  0.282	  1.636	 -9.585	  0.096	  0.265	 -0.818	 27.500	 99.749	  0.176
85906	 -0.256	 -0.411	  0.552	  0.216	  2.225	 -9.435	  0.161	  0.410	 -0.181	 27.500	 99.749	  0.176
85956	 -0.268	 -0.399	  0.559	  1.363	  1.609	 -9.467	  0.182	  0.323	  0.074	 27.500	 99.738	  1.150
86005	 -0.276	 -0.401	  0.560	  1.330	  1.322	 -9.589	  0.099	  0.163	  0.042	 27.500	 99.760	 -0.798
86055	 -0.278	 -0.402	  0.552	  1.442	  1.401	 -9.544	  0.016	  0.029	  0.009	 27.500	 99.749	  0.176
86105	 -0.280	 -0.400	  0.559	  1.283	  1.389	 -9.567	 -0.061	 -0.079	 -0.016	 27.500	 99.753	 -0.178
86155	 -0.273	 -0.398	  0.552	  1.221	  1.523	 -9.541	 -0.107	 -0.167	 -0.034	 27.500	 99.760	 -0.798
86205	 -0.267	 -0.406	  0.555	  1.043	  1.735	 -9.500	 -0.127	 -0.241	 -0.049	 27.500	 99.753	 -0.178
86255	 -0.255	 -0.409	  0.557	  0.865	  1.786	 -9.546	 -0.114	 -0.260	 -0.052	 27.500	 99.749	  0.176
86306	 -0.247	 -0.412	  0.561	  0.681	  1.795	 -9.590	 -0.108	 -0.282	 -0.054	 27.500	 99.749	  0.176
86355	 -0.237	 -0.417	  0.563	  0.308	  1.901	 -9.555	 -0.063	 -0.236	 -0.043	 27.500	 99.753	 -0.178
86406	 -0.231	 -0.414	  0.563	 -0.008	  2.023	 -9.596	 -0.020	 -0.094	 -0.015	 27.500	 99.749	  0.176
86456	 -0.232	 -0.409	  0.565	  0.353	  1.912	 -9.591	  0.014	  0.091	  0.019	 27.500	 99.753	 -0.178
86506	 -0.234	 -0.414	  0.560	  0.464	  1.876	 -9.544	  0.022	  0.111	  0.024	 27.500	 99.753	 -0.178
86556	 -0.241	 -0.414	  0.564	  0.531	  1.841	 -9.519	  0.027	  0.127	  0.027	 27.500	 99.753	 -0.178
86606	 -0.247	 -0.416	  0.564	  0.648	  1.795	 -9.569	  0.032	  0.119	  0.027	 27.500	 99.753	 -0.178
86656	 -0.249	 -0.415	  0.558	  0.848	  1.772	 -9.494	  0.022	  0.069	  0.016	 27.500	 99.753	 -0.178
86706	 -0.248	 -0.410	  0.563	  0.816	  1.753	 -9.537	 -0.001	  0.005	  0.002	 27.500	 99.742	  0.796
86756	 -0.250	 -0.414	  0.561	  0.740	  1.769	 -9.552	 -0.015	 -0.032	 -0.004	 27.500	 99.753	 -0.178
86806	 -0.246	 -0.415	  0.561	  0.720	  1.826	 -9.519	 -0.022	 -0.060	 -0.010	 27.500	 99.753	 -0.178
86856	 -0.248	 -0.407	  0.558	  0.562	  1.798	 -9.574	 -0.019	 -0.053	 -0.009	 27.500	 99.742	  0.796
86906	 -0.244	 -0.409	  0.561	  0.519	  1.860	 -9.592	 -0.011	 -0.026	 -0.003	 27.500	 99.753	 -0.178
86956	 -0.242	 -0.414	  0.561	  0.535	  1.846	 -9.555	 -0.001	  0.006	  0.003	 27.500	 99.746	  0.441
87006	 -0.243	 -0.407	  0.561	  0.675	  1.610	 -9.580	  0.004	  0.014	 -0.016	 27.500	 99.742	  0.796
87056	 -0.240	 -0.414	  0.563	  0.769	  1.469	 -9.637	 -0.002	 -0.029	 -0.295	 27.500	 99.758	 -0.621
87106	 -0.234	 -0.421	  0.569	  0.392	  1.752	 -9.603	 -0.006	 -0.038	 -0.508	 27.500	 99.742	  0.796
87156	 -0.221	 -0.426	  0.564	  0.166	  1.982	 -9.668	  0.028	  0.092	 -0.487	 27.500	 99.746	  0.441
87206	 -0.224	 -0.428	  0.565	  0.189	  2.086	 -9.593	  0.047	  0.192	 -0.372	 27.500	 99.753	 -0.178
87256	 -0.228	 -0.424	  0.564	  0.416	  2.539	 -9.430	  0.074	  0.274	 -0.086	 27.500	 99.742	  0.796
87306	 -0.233	 -0.425	  0.563	  1.011	  1.843	 -9.410	  0.081	  0.213	  0.046	 27.500	 99.742	  0.796
87356	 -0.239	 -0.425	  0.562	  0.990	  1.658	 -9.536	  0.045	  0.117	  0.025	 27.500	 99.758	 -0.621
87406	 -0.246	 -0.425	  0.567	  0.990	  1.645	 -9.529	  0.014	  0.044	  0.011	 27.500	 99.753	 -0.178
87456	 -0.241	 -0.418	  0.562	  0.928	  1.668	 -9.542	 -0.013	 -0.020	 -0.002	 27.500	 99.758	 -0.621
87506	 -0.242	 -0.426	  0.564	  0.903	  1.699	 -9.477	 -0.030	 -0.060	 -0.009	 27.500	 99.753	 -0.178
87556	 -0.236	 -0.426	  0.564	  0.903	  1.708	 -9.575	 -0.048	 -0.104	 -0.018	 27.500	 99.753	 -0.178
87606	 -0.232	 -0.422	  0.565	  0.763	  1.806	 -9.533	 -0.068	 -0.155	 -0.029	 27.500	 99.746	  0.441
87656	 -0.225	 -0.419	  0.570	  0.639	  1.959	 -9.499	 -0.057	 -0.173	 -0.031	 27.500	 99.746	  0.441
87706	 -0.221	 -0.431	  0.566	  0.367	  1.862	 -9.577	 -0.035	 -0.130	 -0.023	 27.500	 99.758	 -0.621
87756	 -0.219	 -0.428	  0.570	  0.241	  1.816	 -9.623	 -0.007	 -0.030	 -0.004	 27.500	 99.746	  0.441
87806	 -0.219	 -0.429	  0.563	  0.436	  1.829	 -9.538	  0.008	  0.048	  0.013	 27.500	 99.746	  0.441
87856	 -0.218	 -0.431	  0.563	  0.469	  1.830	 -9.579	  0.016	  0.078	  0.018	 27.500	 99.758	 -0.621
87906	 -0.224	 -0.431	  0.567	  0.609	  1.821	 -9.550	  0.020	  0.091	  0.019	 27.500	 99.746	  0.441
87956	 -0.229	 -0.427	  0.564	  0.697	  1.840	 -9.508	  0.021	  0.079	  0.018	 27.500	 99.746	  0.441
88006	 -0.228	 -0.429	  0.563	  0.844	  1.733	 -9.579	  0.004	  0.023	  0.007	 27.500	 99.746	  0.441
88056	 -0.228	 -0.426	  0.566	  0.733	  1.779	 -9.577	 -0.012	 -0.027	 -0.002	 27.500	 99.758	 -0.621
88106	 -0.226	 -0.431	  0.565	  0.598	  1.772	 -9.569	 -0.015	 -0.038	 -0.004	 27.500	 99.746	  0.441
88156	 -0.226	 -0.428	  0.562	  0.585	  1.810	 -9.567	 -0.013	 -0.020	 -0.002	 27.500	 99.746	  0.441
88206	 -0.225	 -0.428	  0.563	  0.577	  1.872	 -9.572	 -0.005	 -0.000	  0.002	 27.500	 99.746	  0.441
88256	 -0.224	 -0.430	  0.556	  0.620	  1.841	 -9.547	 -0.001	  0.010	  0.005	 27.500	 99.751	 -0.001
88306	 -0.224	 -0.431	  0.563	  0.648	  1.833	 -9.580	  0.000	  0.010	  0.003	 27.500	 99.746	  0.441
88356	 -0.225	 -0.426	  0.565	  0.633	  1.794	 -9.556	 -0.002	  0.008	  0.003	 27.500	 99.751	 -0.001
88406	 -0.227	 -0.426	  0.566	  0.577	  1.851	 -9.241	 -0.001	  0.002	  0.005	 27.500	 99.746	  0.441
88456	 -0.227	 -0.420	  0.565	  0.596	  1.829	 -9.471	  0.011	 -0.000	  0.002	 27.500	 99.762	 -0.975
88506	 -0.227	 -0.433	  0.570	  0.549	  1.522	 -9.776	 -0.000	  0.001	  0.002	 27.500	 99.746	  0.441
88556	 -0.226	 -0.428	  0.564	  0.612	  1.711	 -9.598	 -0.010	  0.004	  0.003	 27.500	 99.746	  0.441
88606	 -0.229	 -0.427	  0.563	  0.650	  1.903	 -9.544	 -0.001	  0.002	  0.003	 27.500	 99.735	  1.416
88656	 -0.224	 -0.426	  0.565	  0.564	  1.874	 -9.507	  0.001	  0.001	  0.003	 27.500	 99.735	  1.416
88706	 -0.224	 -0.431	  0.567	  0.725	  1.466	 -9.881	 -0.006	  0.001	  0.001	 27.500	 99.751	 -0.001
88756	 -0.225	 -0.430	  0.565	  0.541	  1.633	 -9.737	 -0.008	  0.007	  0.003	 27.500	 99.762	 -0.975
88806	 -0.224	 -0.428	  0.560	  0.513	  1.573	 -9.784	 -0.020	  0.008	  0.004	 27.500	 99.751	 -0.001
88856	 -0.225	 -0.433	  0.562	  0.574	  1.684	 -9.564	 -0.009	  0.005	  0.003	 27.500	 99.735	  1.416
88906	 -0.226	 -0.431	  0.563	  0.577	  1.703	 -9.820	 -0.002	  0.004	  0.004	 27.500	 99.762	 -0.975
88956	 -0.227	 -0.430	  0.566	  0.678	  1.995	 -9.392	 -0.000	 -0.000	  0.002	 27.500	 99.751	 -0.001
89006	 -0.227	 -0.427	  0.564	  0.660	  1.801	 -9.566	  0.000	  0.003	  0.003	 27.500	 99.751	 -0.001
89056	 -0.226	 -0.435	  0.567	  0.635	  1.722	 -9.671	  0.008	 -0.001	  0.002	 27.500	 99.751	 -0.001
89106	 -0.226	 -0.433	  0.559	  0.589	  1.843	 -9.517	  0.002	  0.000	  0.003	 27.500	 99.762	 -0.975
89156	 -0.225	 -0.431	  0.562	  0.701	  1.835	 -9.541	  0.001	  0.001	  0.002	 27.500	 99.751	 -0.001
89206	 -0.223	 -0.423	  0.564	  0.580	  1.816	 -9.546	  0.001	  0.001	  0.003	 27.500	 99.751	 -0.001
89256	 -0.226	 -0.431	  0.563	  0.881	  3.588	 -7.772	 -0.015	  0.014	  0.004	 27.500	 99.751	 -0.001
89306	 -0.227	 -0.427	  0.565	  0.632	  1.481	 -9.878	 -0.004	  0.001	  0.002	 27.500	 99.751	 -0.001
89356	 -0.229	 -0.429	  0.566	  0.636	  1.833	 -9.518	 -0.000	  0.003	  0.004	 27.500	 99.755	 -0.355
89406	 -0.227	 -0.430	  0.564	  0.798	  1.908	 -9.317	  0.016	 -0.006	  0.000	 27.500	 99.762	 -0.975
89456	 -0.228	 -0.431	  0.560	  0.648	  1.868	 -9.581	 -0.000	  0.001	  0.002	 27.500	 99.762	 -0.975
89506	 -0.223	 -0.424	  0.563	  0.623	  1.745	 -9.598	 -0.001	  0.002	  0.002	 27.500	 99.739	  1.062
89556	 -0.225	 -0.426	  0.565	  0.623	  1.818	 -9.610	  0.001	 -0.002	  0.003	 27.500	 99.762	 -0.975
89606	 -0.225	 -0.433	  0.562	  0.646	  1.786	 -9.582	 -0.002	  0.008	  0.004	 27.500	 99.762	 -0.975
89656	 -0.224	 -0.428	  0.564	  0.618	  1.828	 -9.560	 -0.009	  0.001	  0.001	 27.500	 99.751	 -0.001
89706	 -0.226	 -0.433	  0.565	  0.695	  1.538	 -9.597	  0.007	  0.006	 -0.052	 27.500	 99.751	 -0.001
89756	 -0.224	 -0.434	  0.559	  0.586	  2.056	 -9.485	 -0.003	  0.026	 -0.044	 27.500	 99.755	 -0.355
89806	 -0.225	 -0.428	  0.564	  0.718	  1.890	 -9.539	 -0.001	  0.006	  0.005	 27.500	 99.751	 -0.001
89856	 -0.225	 -0.431	  0.565	  0.660	  1.914	 -9.486	 -0.004	 -0.007	  0.002	 27.500	 99.755	 -0.355
89906	 -0.223	 -0.433	  0.562	  0.409	  1.195	 -10.363	  0.050	 -0.013	  0.001	 27.500	 99.766	 -1.330
89956	 -0.226	 -0.431	  0.565	  0.540	  1.775	 -9.175	  0.022	 -0.007	  0.006	 27.500	 99.755	 -0.355
90006	 -0.227	 -0.431	  0.560	  0.723	  2.376	 -8.938	  0.008	  0.004	  0.002	 27.500	 99.751	 -0.001
90056	 -0.227	 -0.424	  0.564	  0.625	  1.623	 -9.545	  0.008	 -0.007	  0.002	 27.500	 99.755	 -0.355
90106	 -0.228	 -0.429	  0.566	  0.680	  1.712	 -9.692	  0.003	  0.002	  0.002	 27.500	 99.755	 -0.355
90156	 -0.223	 -0.433	  0.563	  0.637	  1.881	 -9.502	 -0.018	  0.005	  0.003	 27.500	 99.744	  0.618
90206	 -0.224	 -0.430	  0.563	  0.207	 -0.573	 -5.605	 -0.101	 -0.013	  0.011	 27.500	 99.721	  2.656
90256	 -0.227	 -0.428	  0.560	  0.948	  4.410	 -8.410	  0.047	  0.002	  0.006	 27.500	 99.751	 -0.001
90306	 -0.223	 -0.427	  0.563	  0.565	  2.118	 -10.203	 -0.038	  0.017	  0.006	 27.500	 99.844	 -8.234
90356	 -0.226	 -0.431	  0.567	  0.823	  2.030	 -9.330	 -0.047	  0.014	  0.000	 27.500	 99.822	 -6.287
90406	 -0.224	 -0.432	  0.562	  0.791	  2.212	 -9.092	  0.006	  0.000	  0.001	 27.500	 99.777	 -2.304
90456	 -0.227	 -0.433	  0.568	  0.721	  1.984	 -9.337	  0.002	  0.005	  0.003	 27.500	 99.789	 -3.367
90506	 -0.225	 -0.433	  0.567	  0.665	  1.936	 -9.499	 -0.004	  0.003	  0.004	 27.500	 99.795	 -3.897
90556	 -0.226	 -0.426	  0.565	  0.618	  1.658	 -9.640	 -0.012	  0.002	  0.004	 27.500	 99.811	 -5.314
90606	 -0.226	 -0.424	  0.566	  0.603	  1.768	 -9.603	 -0.005	  0.003	  0.004	 27.500	 99.800	 -4.340
90656	 -0.227	 -0.435	  0.561	  0.658	  1.856	 -9.536	 -0.009	  0.003	  0.002	 27.500	 99.800	 -4.340
90706	 -0.225	 -0.433	  0.561	  0.635	  1.889	 -9.505	 -0.013	  0.000	  0.003	 27.500	 99.811	 -5.314
90756	 -0.228	 -0.435	  0.565	  0.348	  1.450	 -9.846	  0.015	 -0.028	  0.140	 27.500	 99.811	 -5.314
90806	 -0.225	 -0.433	  0.564	  0.638	  2.147	 -9.177	  0.007	 -0.010	 -0.007	 27.500	 99.822	 -6.287
90856	 -0.221	 -0.429	  0.564	  0.082	 -0.313	 -9.882	 -0.154	  0.074	 -0.333	 27.500	 100.169	 -36.933
90906	 -0.222	 -0.435	  0.563	  0.629	  1.897	 -9.685	 -0.035	  0.018	  0.003	 27.500	 100.416	 -58.671
90956	 -0.222	 -0.432	  0.562	  0.535	  1.766	 -9.706	 -0.002	  0.000	  0.003	 27.500	 100.460	 -62.536
91006	 -0.223	 -0.428	  0.561	  0.753	  1.972	 -9.360	 -0.015	 -0.004	  0.001	 27.500	 100.539	 -69.472
91056	 -0.221	 -0.431	  0.561	  0.453	  1.525	 -9.902	  0.005	  0.007	  0.005	 27.500	 100.621	 -76.664
91106	 -0.225	 -0.433	  0.564	  0.649	  1.906	 -9.433	  0.007	 -0.001	  0.001	 27.500	 100.651	 -79.292
91156	 -0.223	 -0.434	  0.559	  0.771	  2.065	 -9.237	 -0.018	  0.001	  0.002	 27.500	 100.655	 -79.644
91206	 -0.222	 -0.438	  0.563	  0.473	  1.752	 -9.698	 -0.009	  0.002	  0.004	 27.500	 100.651	 -79.292
91256	 -0.223	 -0.435	  0.562	  0.487	  1.654	 -9.739	 -0.005	  0.004	  0.004	 27.500	 100.651	 -79.292
91306	 -0.223	 -0.435	  0.567	  0.669	  1.854	 -9.564	 -0.012	  0.003	  0.004	 27.500	 100.621	 -76.664
91356	 -0.223	 -0.429	  0.563	  0.650	  1.931	 -9.455	 -0.004	  0.014	  0.005	 27.500	 100.610	 -75.699
91406	 -0.223	 -0.435	  0.567	  0.533	  1.879	 -9.592	  0.003	 -0.001	  0.003	 27.500	 100.595	 -74.384
91456	 -0.221	 -0.434	  0.566	  0.720	  1.884	 -9.474	 -0.021	  0.002	  0.002	 27.500	 100.577	 -72.805
91506	 -0.220	 -0.432	  0.558	  0.561	  1.900	 -9.517	  0.002	  0.004	  0.005	 27.500	 100.561	 -71.401
91556	 -0.222	 -0.433	  0.562	  0.694	  1.778	 -9.481	 -0.016	  0.024	  0.007	 27.500	 100.554	 -70.788
91607	 -0.221	 -0.439	  0.561	  0.667	  1.604	 -9.734	 -0.034	 -0.004	 -0.001	 27.500	 100.532	 -68.857
91656	 -0.222	 -0.435	  0.567	  0.574	  2.017	 -9.441	 -0.006	 -0.015	 -0.000	 27.500	 100.516	 -67.453
91706	 -0.223	 -0.434	  0.561	  0.625	  1.896	 -9.545	 -0.007	  0.015	  0.006	 27.500	 100.498	 -65.873
91756	 -0.222	 -0.434	  0.558	  0.611	  1.842	 -9.571	  0.004	 -0.000	  0.003	 27.500	 100.487	 -64.908
91806	 -0.222	 -0.426	  0.562	  0.626	  1.814	 -9.522	  0.001	  0.001	  0.003	 27.500	 100.487	 -64.908
91856	 -0.222	 -0.434	  0.561	  0.631	  1.791	 -9.565	  0.003	  0.009	  0.005	 27.500	 100.449	 -61.570
91906	 -0.221	 -0.435	  0.567	  0.588	  1.916	 -9.460	  0.011	 -0.007	  0.003	 27.500	 100.465	 -62.975
91956	 -0.222	 -0.433	  0.562	  0.649	  1.800	 -9.660	  0.007	  0.012	  0.005	 27.600	 100.447	 -61.394
92006	 -0.224	 -0.431	  0.561	  0.625	  1.873	 -9.464	 -0.002	 -0.004	 -0.000	 27.600	 100.420	 -59.022
92056	 -0.222	 -0.433	  0.564	  0.628	  1.754	 -9.526	  0.002	  0.004	  0.002	 27.600	 100.413	 -58.407
92106	 -0.221	 -0.433	  0.566	  0.522	  1.688	 -9.692	 -0.015	  0.006	  0.004	 27.500	 100.402	 -57.441
92157	 -0.220	 -0.434	  0.561	  0.619	  1.795	 -9.644	 -0.006	  0.002	  0.004	 27.500	 100.386	 -56.034
92207	 -0.222	 -0.425	  0.568	  0.600	  1.842	 -9.558	 -0.004	  0.005	  0.004	 27.500	 100.364	 -54.100
92257	 -0.220	 -0.429	  0.557	  0.606	  1.811	 -9.545	 -0.003	  0.002	  0.004	 27.600	 100.379	 -55.418
92307	 -0.223	 -0.431	  0.566	  0.608	  1.800	 -9.529	 -0.002	  0.001	  0.003	 27.600	 100.357	 -53.484
92356	 -0.222	 -0.433	  0.562	  0.676	  1.812	 -9.495	 -0.002	  0.005	  0.003	 27.500	 100.330	 -51.110
92406	 -0.220	 -0.432	  0.565	  0.592	  1.775	 -9.628	 -0.004	  0.005	  0.002	 27.500	 100.285	 -47.151
92456	 -0.220	 -0.434	  0.563	  0.638	  1.834	 -9.507	 -0.004	  0.003	  0.005	 27.600	 100.200	 -39.665
92506	 -0.223	 -0.430	  0.566	  0.590	  1.838	 -9.552	 -0.005	  0.003	  0.004	 27.500	 100.055	 -26.879
92556	 -0.222	 -0.432	  0.564	  0.610	  1.805	 -9.541	 -0.004	 -0.001	  0.003	 27.500	 99.905	 -13.629
92606	 -0.223	 -0.435	  0.560	  0.651	  1.774	 -9.534	 -0.001	  0.002	  0.003	 27.600	 99.741	  0.885
92656	 -0.222	 -0.427	  0.566	  0.602	  1.821	 -9.535	 -0.002	  0.004	  0.005	 27.600	 99.595	 13.829
92706	 -0.223	 -0.432	  0.567	  0.598	  1.823	 -9.527	 -0.003	 -0.001	  0.002	 27.600	 99.439	 27.685
92756	 -0.223	 -0.433	  0.562	  0.640	  1.821	 -9.549	 -0.003	  0.004	  0.003	 27.600	 99.293	 40.677
92806	 -0.222	 -0.428	  0.564	  0.606	  1.815	 -9.569	 -0.002	  0.002	  0.005	 27.600	 99.147	 53.691
92856	 -0.225	 -0.427	  0.565	  0.622	  1.812	 -9.548	 -0.003	  0.002	  0.002	 27.600	 99.017	 65.299
92906	 -0.219	 -0.431	  0.561	  0.651	  1.819	 -9.535	 -0.003	  0.001	  0.002	 27.600	 98.845	 80.684
92956	 -0.224	 -0.436	  0.568	  0.612	  1.805	 -9.549	 -0.002	  0.004	  0.003	 27.600	 98.699	 93.769
93006	 -0.220	 -0.433	  0.565	  0.590	  1.798	 -9.580	 -0.004	  0.002	  0.005	 27.600	 98.538	 108.225
93056	 -0.221	 -0.432	  0.564	  0.631	  1.804	 -9.574	 -0.003	  0.002	  0.002	 27.600	 98.408	 119.918
93106	 -0.221	 -0.423	  0.564	  0.617	  1.844	 -9.493	 -0.003	  0.002	  0.002	 27.600	 98.263	 132.981
93156	 -0.223	 -0.436	  0.564	  0.609	  1.823	 -9.563	 -0.004	  0.001	  0.002	 27.600	 98.117	 146.159
93206	 -0.219	 -0.430	  0.563	  0.628	  1.824	 -9.513	 -0.002	  0.003	  0.003	 27.600	 97.983	 158.273
93256	 -0.221	 -0.435	  0.562	  0.602	  1.808	 -9.571	 -0.002	  0.004	  0.003	 27.600	 97.852	 170.136
93306	 -0.222	 -0.436	  0.558	  0.616	  1.823	 -9.560	 -0.004	 -0.000	  0.004	 27.600	 97.691	 184.740
93356	 -0.222	 -0.432	  0.564	  0.622	  1.816	 -9.552	 -0.002	  0.003	  0.004	 27.600	 97.568	 195.918
93406	 -0.219	 -0.435	  0.561	  0.605	  1.847	 -9.519	 -0.002	  0.003	  0.002	 27.600	 97.423	 209.117
93456	 -0.221	 -0.429	  0.562	  0.614	  1.827	 -9.563	 -0.002	  0.000	  0.003	 27.600	 97.277	 222.429
93506	 -0.219	 -0.433	  0.567	  0.648	  1.816	 -9.540	 -0.004	  0.005	  0.004	 27.600	 97.154	 233.663
93556	 -0.221	 -0.430	  0.563	  0.612	  1.810	 -9.540	 -0.003	  0.001	  0.003	 27.600	 97.008	 247.020
93606	 -0.223	 -0.438	  0.566	  0.625	  1.819	 -9.555	 -0.004	  0.002	  0.004	 27.600	 96.885	 258.290
93656	 -0.221	 -0.430	  0.559	  0.624	  1.795	 -9.559	 -0.001	  0.003	  0.004	 27.600	 96.744	 271.232
93706	 -0.222	 -0.431	  0.567	  0.599	  1.841	 -9.530	 -0.003	  0.002	  0.003	 27.600	 96.594	 285.025
93756	 -0.222	 -0.435	  0.559	  0.621	  1.803	 -9.554	 -0.004	  0.002	  0.003	 27.600	 96.497	 293.958
93806	 -0.223	 -0.435	  0.562	  0.628	  1.802	 -9.524	 -0.002	  0.004	  0.004	 27.600	 96.385	 304.285
93856	 -0.221	 -0.433	  0.563	  0.627	  1.797	 -9.593	 -0.003	  0.001	  0.003	 27.600	 96.273	 314.626
93906	 -0.225	 -0.437	  0.564	  0.614	  1.824	 -9.540	 -0.002	  0.004	  0.001	 27.600	 96.139	 327.018
93956	 -0.218	 -0.432	  0.562	  0.591	  1.806	 -9.562	 -0.003	  0.004	  0.003	 27.600	 96.034	 336.743
94006	 -0.222	 -0.431	  0.566	  0.615	  1.795	 -9.545	 -0.002	  0.002	  0.002	 27.600	 95.904	 348.800
94056	 -0.220	 -0.433	  0.565	  0.627	  1.828	 -9.587	 -0.002	  0.001	  0.002	 27.600	 95.803	 358.181
94106	 -0.219	 -0.433	  0.559	  0.646	  1.810	 -9.516	 -0.003	  0.002	  0.004	 27.600	 95.680	 369.621
94156	 -0.221	 -0.433	  0.566	  0.605	  1.832	 -9.541	 -0.003	  0.002	  0.002	 27.600	 95.579	 379.029
94206	 -0.219	 -0.430	  0.562	  0.627	  1.841	 -9.530	 -0.003	  0.002	  0.004	 27.600	 95.456	 390.501
94256	 -0.224	 -0.432	  0.561	  0.621	  1.818	 -9.570	 -0.002	  0.002	  0.003	 27.600	 95.336	 401.711
94306	 -0.224	 -0.425	  0.563	  0.607	  1.820	 -9.566	 -0.003	  0.003	  0.003	 27.600	 95.209	 413.592
94356	 -0.220	 -0.434	  0.566	  0.618	  1.842	 -9.555	 -0.003	  0.002	  0.003	 27.600	 95.108	 423.055
94406	 -0.222	 -0.434	  0.564	  0.641	  1.831	 -9.554	 -0.003	  0.002	  0.004	 27.600	 94.985	 434.595
94456	 -0.223	 -0.432	  0.555	  0.622	  1.816	 -9.537	 -0.004	  0.003	  0.003	 27.600	 94.873	 445.119
94506	 -0.222	 -0.433	  0.563	  0.580	  1.822	 -9.548	 -0.002	  0.003	  0.002	 27.600	 94.761	 455.657
94556	 -0.223	 -0.423	  0.566	  0.644	  1.823	 -9.542	 -0.003	  0.001	  0.003	 27.600	 94.627	 468.285
94606	 -0.223	 -0.433	  0.563	  0.622	  1.820	 -9.539	 -0.003	  0.003	  0.002	 27.600	 94.515	 478.856
94656	 -0.222	 -0.432	  0.567	  0.625	  1.848	 -9.524	 -0.003	  0.002	  0.002	 27.600	 94.380	 491.618
94706	 -0.220	 -0.434	  0.560	  0.613	  1.834	 -9.576	 -0.003	  0.004	  0.003	 27.600	 94.280	 501.085
94756	 -0.220	 -0.432	  0.563	  0.614	  1.817	 -9.565	 -0.004	  0.001	  0.002	 27.600	 94.160	 512.461
94806	 -0.221	 -0.436	  0.566	  0.656	  1.824	 -9.536	 -0.003	  0.004	  0.002	 27.600	 94.048	 523.095
94856	 -0.222	 -0.430	  0.566	  0.621	  1.821	 -9.590	 -0.003	  0.004	  0.003	 27.600	 93.925	 534.790
94906	 -0.222	 -0.437	  0.565	  0.607	  1.822	 -9.551	 -0.003	  0.002	  0.001	 27.600	 93.791	 547.553
94956	 -0.221	 -0.429	  0.562	  0.617	  1.830	 -9.540	 -0.003	  0.002	  0.003	 27.600	 93.686	 557.568
95006	 -0.221	 -0.437	  0.561	  0.622	  1.812	 -9.536	 -0.003	  0.003	  0.003	 27.600	 93.567	 568.934
95056	 -0.221	 -0.425	  0.564	  0.617	  1.802	 -9.522	 -0.004	  0.003	  0.003	 27.600	 93.451	 580.032
95106	 -0.220	 -0.432	  0.557	  0.638	  1.821	 -9.564	 -0.004	  0.002	  0.003	 27.600	 93.343	 590.378
95156	 -0.223	 -0.434	  0.564	  0.627	  1.793	 -9.596	 -0.003	  0.003	  0.003	 27.600	 93.231	 601.122
95206	 -0.225	 -0.433	  0.563	  0.620	  1.820	 -9.566	 -0.004	  0.001	  0.004	 27.600	 93.092	 614.479
95256	 -0.223	 -0.431	  0.556	  0.619	  1.834	 -9.561	 -0.004	  0.005	  0.003	 27.600	 92.984	 624.873
95306	 -0.224	 -0.431	  0.564	  0.621	  1.826	 -9.539	 -0.003	  0.003	  0.004	 27.600	 92.872	 635.667
95356	 -0.222	 -0.430	  0.562	  0.604	  1.844	 -9.565	 -0.004	  0.001	  0.003	 27.600	 92.760	 646.476
95406	 -0.219	 -0.429	  0.564	  0.630	  1.842	 -9.545	 -0.003	  0.001	  0.002	 27.600	 92.641	 657.978
95456	 -0.221	 -0.430	  0.565	  0.617	  1.824	 -9.566	 -0.003	  0.003	  0.002	 27.600	 92.514	 670.273
95506	 -0.222	 -0.429	  0.566	  0.616	  1.817	 -9.531	 -0.003	  0.003	  0.004	 27.600	 92.395	 681.813
95556	 -0.221	 -0.438	  0.566	  0.614	  1.823	 -9.560	 -0.004	  0.003	  0.003	 27.600	 92.279	 693.077
95606	 -0.219	 -0.431	  0.562	  0.608	  1.812	 -9.568	 -0.003	  0.002	  0.002	 27.600	 92.171	 703.580
95656	 -0.225	 -0.424	  0.564	  0.627	  1.822	 -9.540	 -0.002	  0.003	  0.002	 27.600	 92.066	 713.806
95706	 -0.219	 -0.434	  0.565	  0.607	  1.826	 -9.575	 -0.002	  0.002	  0.004	 27.600	 91.935	 726.583
95756	 -0.223	 -0.435	  0.564	  0.606	  1.818	 -9.562	 -0.004	  0.001	  0.003	 27.600	 91.820	 737.817
95806	 -0.220	 -0.435	  0.566	  0.621	  1.828	 -9.549	 -0.003	  0.003	  0.004	 27.600	 91.708	 748.774
95856	 -0.221	 -0.433	  0.566	  0.605	  1.807	 -9.573	 -0.002	  0.003	  0.003	 27.600	 91.596	 759.748
95906	 -0.221	 -0.433	  0.559	  0.634	  1.823	 -9.536	 -0.003	  0.003	  0.003	 27.600	 91.476	 771.523
95956	 -0.224	 -0.431	  0.566	  0.631	  1.832	 -9.552	 -0.004	  0.002	  0.004	 27.600	 91.375	 781.448
96006	 -0.219	 -0.431	  0.562	  0.632	  1.836	 -9.536	 -0.003	  0.003	  0.003	 27.600	 91.252	 793.552
96056	 -0.221	 -0.433	  0.559	  0.624	  1.798	 -9.537	 -0.004	  0.003	  0.002	 27.600	 91.140	 804.591
96106	 -0.219	 -0.428	  0.565	  0.617	  1.834	 -9.554	 -0.003	  0.004	  0.003	 27.600	 91.028	 815.646
96156	 -0.221	 -0.432	  0.561	  0.626	  1.820	 -9.596	 -0.002	  0.003	  0.003	 27.600	 90.927	 825.629
96206	 -0.222	 -0.435	  0.566	  0.624	  1.819	 -9.546	 -0.004	  0.002	  0.002	 27.600	 90.804	 837.805
96256	 -0.222	 -0.426	  0.564	  0.607	  1.815	 -9.570	 -0.002	  0.003	  0.002	 27.600	 90.703	 847.817
96306	 -0.224	 -0.432	  0.563	  0.618	  1.833	 -9.541	 -0.003	  0.002	  0.002	 27.600	 90.569	 861.121
96356	 -0.221	 -0.425	  0.566	  0.593	  1.831	 -9.559	 -0.004	  0.004	  0.004	 27.600	 90.479	 870.071
96406	 -0.222	 -0.433	  0.563	  0.620	  1.826	 -9.560	 -0.002	  0.003	  0.003	 27.600	 90.356	 882.317
96456	 -0.221	 -0.432	  0.566	  0.626	  1.801	 -9.579	 -0.003	  0.001	  0.003	 27.600	 90.259	 891.990
96506	 -0.221	 -0.430	  0.560	  0.648	  1.827	 -9.548	 -0.002	  0.003	  0.003	 27.600	 90.132	 904.673
96556	 -0.223	 -0.424	  0.563	  0.616	  1.821	 -9.573	 -0.003	  0.002	  0.003	 27.600	 90.043	 913.574
96606	 -0.226	 -0.427	  0.563	  0.642	  1.817	 -9.575	 -0.004	  0.001	  0.003	 27.600	 89.919	 925.992
96656	 -0.222	 -0.432	  0.562	  0.623	  1.817	 -9.533	 -0.003	  0.004	  0.002	 27.600	 89.818	 936.122
96706	 -0.221	 -0.434	  0.558	  0.602	  1.826	 -9.556	 -0.004	  0.001	  0.004	 27.600	 89.706	 947.371
96756	 -0.221	 -0.433	  0.565	  0.635	  1.831	 -9.521	 -0.002	  0.003	  0.003	 27.600	 89.594	 958.637
96806	 -0.222	 -0.425	  0.564	  0.629	  1.809	 -9.578	 -0.003	  0.003	  0.003	 27.600	 89.497	 968.408
96856	 -0.223	 -0.437	  0.566	  0.614	  1.832	 -9.555	 -0.002	  0.004	  0.004	 27.600	 89.393	 978.898
96906	 -0.222	 -0.431	  0.562	  0.619	  1.830	 -9.577	 -0.003	  0.002	  0.003	 27.600	 89.281	 990.211
96956	 -0.221	 -0.432	  0.566	  0.638	  1.834	 -9.556	 -0.003	  0.004	  0.002	 27.600	 89.180	 1000.427
97006	 -0.221	 -0.425	  0.562	  0.618	  1.818	 -9.586	 -0.003	  0.002	  0.002	 27.600	 89.072	 1011.367
97056	 -0.221	 -0.435	  0.565	  0.609	  1.821	 -9.542	 -0.003	  0.003	  0.003	 27.600	 88.960	 1022.728
97106	 -0.222	 -0.429	  0.562	  0.650	  1.813	 -9.570	 -0.003	  0.001	  0.003	 27.600	 88.859	 1032.989
97156	 -0.221	 -0.433	  0.562	  0.619	  1.829	 -9.541	 -0.004	  0.004	  0.003	 27.600	 88.743	 1044.790
97206	 -0.220	 -0.435	  0.561	  0.616	  1.834	 -9.558	 -0.003	  0.001	  0.003	 27.600	 88.635	 1055.794
97256	 -0.221	 -0.432	  0.567	  0.647	  1.815	 -9.560	 -0.003	  0.003	  0.003	 27.600	 88.545	 1064.977
97306	 -0.219	 -0.433	  0.559	  0.615	  1.833	 -9.551	 -0.002	  0.003	  0.003	 27.600	 88.433	 1076.419
97356	 -0.219	 -0.434	  0.565	  0.633	  1.856	 -9.555	 -0.003	  0.002	  0.002	 27.600	 88.333	 1086.650
97406	 -0.221	 -0.434	  0.567	  0.637	  1.841	 -9.552	 -0.004	  0.002	  0.004	 27.600	 88.221	 1098.124
97457	 -0.221	 -0.430	  0.562	  0.600	  1.825	 -9.571	 -0.002	  0.004	  0.003	 27.600	 88.131	 1107.359
97506	 -0.223	 -0.433	  0.567	  0.632	  1.823	 -9.556	 -0.002	  0.001	  0.002	 27.600	 88.019	 1118.865
97557	 -0.222	 -0.434	  0.562	  0.643	  1.822	 -9.539	 -0.002	  0.002	  0.003	 27.600	 87.929	 1128.123
97606	 -0.222	 -0.433	  0.565	  0.604	  1.819	 -9.541	 -0.004	  0.004	  0.003	 27.600	 87.817	 1139.661
97656	 -0.221	 -0.431	  0.563	  0.621	  1.815	 -9.536	 -0.003	  0.001	  0.003	 27.600	 87.716	 1150.081
97706	 -0.220	 -0.427	  0.563	  0.609	  1.829	 -9.569	 -0.003	  0.002	  0.004	 27.600	 87.604	 1161.653
97757	 -0.222	 -0.433	  0.562	  0.615	  1.831	 -9.522	 -0.003	  0.003	  0.003	 27.600	 87.504	 1171.999
97807	 -0.223	 -0.425	  0.566	  0.624	  1.829	 -9.550	 -0.003	  0.002	  0.003	 27.600	 87.403	 1182.463
97857	 -0.222	 -0.433	  0.563	  0.625	  1.800	 -9.574	 -0.003	  0.003	  0.004	 27.600	 87.302	 1192.942
97907	 -0.219	 -0.432	  0.557	  0.661	  1.848	 -9.512	 -0.003	  0.003	  0.002	 27.600	 87.201	 1203.435
97957	 -0.222	 -0.434	  0.566	  0.628	  1.831	 -9.565	 -0.003	  0.002	  0.003	 27.600	 87.093	 1214.671
98007	 -0.220	 -0.432	  0.562	  0.593	  1.833	 -9.535	 -0.002	  0.002	  0.004	 27.600	 87.000	 1224.360
98056	 -0.220	 -0.434	  0.569	  0.604	  1.822	 -9.531	 -0.002	  0.001	  0.002	 27.600	 86.888	 1236.045
98106	 -0.221	 -0.431	  0.566	  0.629	  1.814	 -9.536	 -0.002	  0.004	  0.004	 27.600	 86.787	 1246.598
98156	 -0.223	 -0.426	  0.566	  0.605	  1.828	 -9.576	 -0.003	  0.004	  0.002	 27.600	 86.686	 1257.165
98206	 -0.220	 -0.430	  0.559	  0.614	  1.841	 -9.577	 -0.003	  0.004	  0.001	 27.600	 86.589	 1267.328
98256	 -0.223	 -0.429	  0.562	  0.632	  1.834	 -9.559	 -0.003	  0.003	  0.003	 27.600	 86.496	 1277.084
98306	 -0.220	 -0.433	  0.564	  0.633	  1.832	 -9.573	 -0.003	  0.003	  0.004	 27.600	 86.395	 1287.694
98356	 -0.219	 -0.431	  0.562	  0.595	  1.821	 -9.558	 -0.003	  0.003	  0.003	 27.600	 86.286	 1299.160
98406	 -0.220	 -0.432	  0.562	  0.619	  1.836	 -9.546	 -0.003	  0.002	  0.004	 27.600	 86.193	 1308.958
98456	 -0.221	 -0.432	  0.567	  0.643	  1.818	 -9.539	 -0.003	  0.003	  0.004	 27.600	 86.092	 1319.611
98506	 -0.222	 -0.433	  0.562	  0.633	  1.834	 -9.547	 -0.003	  0.002	  0.003	 27.600	 86.006	 1328.696
98556	 -0.222	 -0.435	  0.566	  0.619	  1.815	 -9.543	 -0.003	  0.002	  0.002	 27.600	 85.894	 1340.542
98606	 -0.220	 -0.432	  0.561	  0.631	  1.845	 -9.557	 -0.003	  0.003	  0.002	 27.600	 85.782	 1352.407
98656	 -0.220	 -0.434	  0.557	  0.626	  1.832	 -9.559	 -0.002	  0.002	  0.003	 27.600	 85.704	 1360.680
98706	 -0.221	 -0.436	  0.562	  0.625	  1.837	 -9.587	 -0.004	  0.002	  0.003	 27.700	 85.592	 1372.575
98756	 -0.219	 -0.435	  0.562	  0.617	  1.823	 -9.562	 -0.002	  0.002	  0.004	 27.600	 85.502	 1382.149
98806	 -0.222	 -0.436	  0.563	  0.631	  1.837	 -9.536	 -0.002	  0.004	  0.002	 27.600	 85.402	 1392.799
98856	 -0.220	 -0.428	  0.556	  0.621	  1.822	 -9.518	 -0.002	  0.002	  0.001	 27.700	 85.304	 1403.250
98906	 -0.222	 -0.432	  0.560	  0.611	  1.796	 -9.589	 -0.004	  0.002	  0.003	 27.600	 85.200	 1414.358
98956	 -0.220	 -0.435	  0.559	  0.620	  1.816	 -9.551	 -0.002	  0.002	  0.002	 27.600	 85.110	 1423.983
99006	 -0.222	 -0.437	  0.561	  0.627	  1.826	 -9.554	 -0.002	  0.003	  0.003	 27.700	 85.002	 1435.549
99056	 -0.220	 -0.431	  0.565	  0.629	  1.807	 -9.575	 -0.003	  0.003	  0.002	 27.700	 84.909	 1445.523
99106	 -0.222	 -0.432	  0.566	  0.622	  1.844	 -9.605	 -0.003	  0.002	  0.003	 27.700	 84.811	 1456.048
99156	 -0.221	 -0.433	  0.562	  0.617	  1.843	 -9.507	 -0.002	  0.003	  0.004	 27.600	 84.729	 1464.865
99206	 -0.221	 -0.431	  0.567	  0.636	  1.867	 -9.584	 -0.003	  0.001	  0.002	 27.700	 84.621	 1476.493
99256	 -0.221	 -0.433	  0.560	  0.634	  1.815	 -9.561	 -0.004	  0.002	  0.002	 27.700	 84.517	 1487.707
99306	 -0.223	 -0.424	  0.561	  0.612	  1.832	 -9.553	 -0.004	  0.002	  0.003	 27.600	 84.427	 1497.425
99356	 -0.224	 -0.434	  0.566	  0.636	  1.836	 -9.555	 -0.003	  0.002	  0.003	 27.600	 84.315	 1509.535
99406	 -0.220	 -0.430	  0.559	  0.629	  1.820	 -9.580	 -0.003	  0.003	  0.003	 27.700	 84.229	 1518.848
99456	 -0.223	 -0.436	  0.566	  0.604	  1.833	 -9.544	 -0.003	  0.003	  0.003	 27.700	 84.139	 1528.605
99506	 -0.222	 -0.430	  0.562	  0.647	  1.824	 -9.546	 -0.003	  0.002	  0.003	 27.700	 84.024	 1541.092
99556	 -0.222	 -0.423	  0.563	  0.621	  1.836	 -9.551	 -0.003	  0.003	  0.003	 27.700	 83.949	 1549.246
99606	 -0.219	 -0.432	  0.565	  0.631	  1.811	 -9.550	 -0.002	  0.002	  0.004	 27.700	 83.848	 1560.241
99656	 -0.225	 -0.432	  0.561	  0.634	  1.829	 -9.561	 -0.002	  0.001	  0.002	 27.700	 83.758	 1570.050
99706	 -0.220	 -0.435	  0.563	  0.626	  1.818	 -9.545	 -0.001	  0.003	  0.004	 27.700	 83.658	 1580.966
99756	 -0.220	 -0.428	  0.564	  0.620	  1.804	 -9.600	 -0.002	  0.003	  0.004	 27.700	 83.557	 1592.006
99806	 -0.222	 -0.434	  0.562	  0.602	  1.791	 -9.570	 -0.003	  0.002	  0.003	 27.700	 83.467	 1601.857
99856	 -0.223	 -0.433	  0.567	  0.621	  1.831	 -9.581	 -0.004	  0.002	  0.002	 27.700	 83.366	 1612.928
99906	 -0.223	 -0.431	  0.565	  0.625	  1.826	 -9.530	 -0.003	  0.002	  0.003	 27.700	 83.277	 1622.696
99956	 -0.220	 -0.433	  0.562	  0.641	  1.844	 -9.560	 -0.003	  0.003	  0.004	 27.700	 83.176	 1633.796
100008	 -0.223	 -0.433	  0.563	  0.642	  1.850	 -9.523	 -0.002	  0.001	  0.004	 27.700	 83.086	 1643.701
100056	 -0.221	 -0.430	  0.562	  0.618	  1.844	 -9.577	 -0.003	  0.002	  0.003	 27.700	 82.974	 1656.046
100106	 -0.228	 -0.418	  0.567	  0.630	  1.793	 -9.581	 -0.003	  0.002	  0.002	 27.700	 82.885	 1665.869
100156	 -0.218	 -0.433	  0.564	  0.639	  1.919	 -9.499	 -0.001	  0.002	  0.002	 27.700	 82.795	 1675.816
100206	 -0.214	 -0.429	  0.564	  0.650	  1.834	 -9.538	 -0.003	  0.001	  0.002	 27.700	 82.705	 1685.775
100256	 -0.215	 -0.430	  0.552	  0.635	  1.835	 -9.547	 -0.002	  0.002	  0.003	 27.700	 82.631	 1693.974
100306	 -0.220	 -0.430	  0.556	  0.622	  1.827	 -9.541	 -0.002	  0.003	  0.003	 27.700	 82.530	 1705.177
100356	 -0.218	 -0.423	  0.558	  0.626	  1.818	 -9.540	 -0.002	  0.002	  0.003	 27.700	 82.425	 1716.842
100406	 -0.221	 -0.429	  0.561	  0.612	  1.830	 -9.574	 -0.004	  0.003	  0.002	 27.700	 82.336	 1726.744
100456	 -0.219	 -0.427	  0.559	  0.609	  1.819	 -9.572	 -0.003	  0.001	  0.003	 27.700	 82.250	 1736.323
100506	 -0.220	 -0.426	  0.559	  0.614	  1.845	 -9.580	 -0.003	  0.004	  0.004	 27.700	 82.145	 1748.036
100556	 -0.221	 -0.420	  0.558	  0.641	  1.835	 -9.582	 -0.004	  0.002	  0.003	 27.700	 82.070	 1756.412
100606	 -0.219	 -0.428	  0.553	  0.628	  1.848	 -9.547	 -0.003	  0.002	  0.004	 27.700	 81.958	 1768.939
100656	 -0.218	 -0.428	  0.560	  0.616	  1.818	 -9.543	 -0.003	  0.002	  0.002	 27.700	 81.891	 1776.442
100706	 -0.222	 -0.428	  0.556	  0.607	  1.849	 -9.526	 -0.004	  0.002	  0.003	 27.700	 81.779	 1789.002
100756	 -0.219	 -0.429	  0.559	  0.601	  1.839	 -9.523	 -0.003	  0.002	  0.002	 27.700	 81.690	 1798.996
100806	 -0.218	 -0.424	  0.554	  0.625	  1.827	 -9.583	 -0.003	  0.002	  0.003	 27.700	 81.589	 1810.354
100856	 -0.220	 -0.429	  0.556	  0.603	  1.841	 -9.553	 -0.002	  0.002	  0.003	 27.700	 81.510	 1819.250
100906	 -0.219	 -0.427	  0.559	  0.626	  1.825	 -9.545	 -0.003	  0.003	  0.003	 27.700	 81.398	 1831.879
100957	 -0.220	 -0.430	  0.551	  0.644	  1.822	 -9.546	 -0.002	  0.003	  0.003	 27.700	 81.320	 1840.686
101006	 -0.219	 -0.427	  0.556	  0.586	  1.857	 -9.563	 -0.003	  0.002	  0.003	 27.700	 81.242	 1849.505
101056	 -0.220	 -0.430	  0.558	  0.644	  1.819	 -9.536	 -0.003	  0.003	  0.003	 27.700	 81.141	 1860.937
101106	 -0.219	 -0.425	  0.557	  0.645	  1.830	 -9.549	 -0.002	  0.003	  0.003	 27.700	 81.040	 1872.387
101156	 -0.221	 -0.428	  0.560	  0.628	  1.846	 -9.548	 -0.003	  0.003	  0.003	 27.700	 80.961	 1881.354
101206	 -0.218	 -0.430	  0.558	  0.617	  1.819	 -9.563	 -0.003	  0.002	  0.002	 27.700	 80.861	 1892.720
101256	 -0.218	 -0.418	  0.558	  0.640	  1.822	 -9.549	 -0.003	 -0.001	  0.002	 27.700	 80.771	 1902.964
101306	 -0.219	 -0.431	  0.559	  0.632	  1.815	 -9.547	 -0.002	  0.003	  0.003	 27.700	 80.670	 1914.477
101356	 -0.218	 -0.430	  0.549	  0.636	  1.829	 -9.520	 -0.004	  0.003	  0.002	 27.700	 80.603	 1922.123
101406	 -0.220	 -0.430	  0.560	  0.635	  1.813	 -9.566	 -0.003	  0.001	  0.003	 27.700	 80.494	 1934.578
101456	 -0.221	 -0.425	  0.553	  0.620	  1.820	 -9.534	 -0.002	  0.003	  0.002	 27.700	 80.413	 1943.847
101506	 -0.220	 -0.430	  0.557	  0.600	  1.802	 -9.589	 -0.004	  0.003	  0.003	 27.700	 80.326	 1953.816
101556	 -0.219	 -0.426	  0.559	  0.643	  1.799	 -9.546	 -0.004	  0.002	  0.003	 27.700	 80.233	 1964.486
101606	 -0.219	 -0.426	  0.553	  0.624	  1.832	 -9.552	 -0.001	  0.003	  0.004	 27.700	 80.114	 1978.160
101656	 -0.220	 -0.427	  0.560	  0.578	  1.837	 -9.533	 -0.004	  0.002	  0.004	 27.700	 80.035	 1987.250
101706	 -0.218	 -0.428	  0.560	  0.644	  1.841	 -9.564	 -0.003	  0.000	  0.002	 27.700	 79.923	 2000.159
101756	 -0.219	 -0.428	  0.553	  0.629	  1.811	 -9.594	 -0.003	  0.004	  0.004	 27.700	 79.856	 2007.889
101806	 -0.220	 -0.428	  0.557	  0.618	  1.823	 -9.557	 -0.002	  0.002	  0.002	 27.700	 79.777	 2017.016
101856	 -0.219	 -0.424	  0.556	  0.636	  1.831	 -9.587	 -0.004	  0.003	  0.004	 27.700	 79.729	 2022.567
101906	 -0.219	 -0.428	  0.555	  0.635	  1.817	 -9.503	 -0.003	  0.003	  0.004	 27.700	 79.721	 2023.492
101956	 -0.220	 -0.428	  0.553	  0.607	  1.849	 -9.533	 -0.003	  0.003	  0.003	 27.700	 79.733	 2022.103
102006	 -0.220	 -0.428	  0.557	  0.640	  1.867	 -9.495	 -0.002	  0.001	  0.003	 27.700	 79.766	 2018.287
102056	 -0.219	 -0.429	  0.560	  0.604	  1.822	 -9.553	 -0.005	  0.002	  0.002	 27.700	 79.800	 2014.357
102106	 -0.220	 -0.425	  0.555	  0.621	  1.776	 -9.579	 -0.005	 -0.001	  0.002	 27.700	 79.833	 2010.545
102156	 -0.222	 -0.427	  0.558	  0.637	  1.835	 -9.523	 -0.001	  0.007	  0.004	 27.700	 79.845	 2009.160
102206	 -0.220	 -0.429	  0.556	  0.608	  1.820	 -9.530	 -0.004	  0.001	  0.003	 27.700	 79.878	 2005.350
102256	 -0.222	 -0.418	  0.559	  0.648	  1.825	 -9.582	 -0.006	  0.002	  0.003	 27.700	 79.901	 2002.696
102306	 -0.219	 -0.425	  0.553	  0.649	  1.824	 -9.544	 -0.001	  0.004	  0.003	 27.700	 79.912	 2001.427
102356	 -0.220	 -0.431	  0.560	  0.578	  1.814	 -9.589	 -0.004	  0.003	  0.002	 27.700	 79.945	 1997.621
102406	 -0.216	 -0.430	  0.559	  0.667	  1.839	 -9.534	 -0.002	  0.001	  0.003	 27.700	 79.968	 1994.969
102456	 -0.222	 -0.428	  0.555	  0.623	  1.773	 -9.601	 -0.005	  0.001	  0.002	 27.700	 79.990	 1992.435
102506	 -0.216	 -0.420	  0.556	  0.664	  1.809	 -9.532	 -0.000	  0.004	  0.003	 27.700	 80.005	 1990.707
102556	 -0.219	 -0.424	  0.555	  0.569	  1.869	 -9.564	 -0.006	  0.003	  0.003	 27.700	 79.968	 1994.969
102606	 -0.219	 -0.431	  0.553	  0.634	  1.813	 -9.510	 -0.006	 -0.003	  0.002	 27.700	 79.923	 2000.159
102656	 -0.220	 -0.428	  0.559	  0.655	  1.818	 -9.561	 -0.001	  0.004	  0.003	 27.700	 79.878	 2005.350
102706	 -0.220	 -0.428	  0.560	  0.598	  1.871	 -9.572	 -0.003	  0.004	  0.002	 27.700	 79.845	 2009.160
102756	 -0.219	 -0.418	  0.557	  0.638	  1.818	 -9.529	 -0.004	 -0.000	  0.001	 27.700	 79.803	 2014.011
102806	 -0.219	 -0.426	  0.558	  0.643	  1.805	 -9.561	 -0.003	  0.003	  0.003	 27.700	 79.747	 2020.484
102856	 -0.220	 -0.427	  0.559	  0.592	  1.849	 -9.552	 -0.002	  0.004	  0.004	 27.700	 79.710	 2024.765
102906	 -0.219	 -0.419	  0.559	  0.611	  1.832	 -9.557	 -0.002	  0.003	  0.003	 27.700	 79.669	 2029.510
102957	 -0.218	 -0.425	  0.556	  0.626	  1.835	 -9.564	 -0.003	  0.002	  0.003	 27.700	 79.621	 2035.068
103006	 -0.219	 -0.425	  0.559	  0.643	  1.843	 -9.498	 -0.003	  0.002	  0.003	 27.700	 79.579	 2039.936
103056	 -0.218	 -0.427	  0.559	  0.618	  1.849	 -9.567	 -0.002	  0.003	  0.002	 27.700	 79.534	 2045.156
103106	 -0.219	 -0.427	  0.559	  0.618	  1.820	 -9.542	 -0.003	  0.002	  0.003	 27.700	 79.478	 2051.656
103156	 -0.219	 -0.423	  0.558	  0.624	  1.849	 -9.527	 -0.003	  0.004	  0.004	 27.700	 79.456	 2054.209
103207	 -0.218	 -0.421	  0.558	  0.647	  1.809	 -9.577	 -0.003	  0.001	  0.003	 27.700	 79.411	 2059.437
103256	 -0.220	 -0.429	  0.559	  0.626	  1.820	 -9.561	 -0.002	  0.005	  0.004	 27.700	 79.355	 2065.949
103307	 -0.221	 -0.426	  0.560	  0.610	  1.868	 -9.569	 -0.004	  0.002	  0.004	 27.700	 79.310	 2071.186
103356	 -0.220	 -0.427	  0.557	  0.650	  1.819	 -9.556	 -0.003	 -0.000	  0.003	 27.700	 79.254	 2077.707
103407	 -0.219	 -0.423	  0.556	  0.612	  1.839	 -9.564	 -0.002	  0.003	  0.003	 27.700	 79.198	 2084.234
103457	 -0.218	 -0.428	  0.559	  0.639	  1.818	 -9.515	 -0.003	  0.002	  0.004	 27.700	 79.165	 2088.082
103507	 -0.218	 -0.427	  0.557	  0.595	  1.823	 -9.579	 -0.003	  0.002	  0.004	 27.700	 79.120	 2093.333
103557	 -0.221	 -0.432	  0.556	  0.651	  1.844	 -9.541	 -0.004	  0.001	  0.003	 27.700	 79.075	 2098.589
103607	 -0.218	 -0.423	  0.559	  0.649	  1.831	 -9.573	 -0.003	  0.002	  0.004	 27.700	 79.008	 2106.418
103657	 -0.221	 -0.427	  0.558	  0.617	  1.841	 -9.535	 -0.003	  0.004	  0.002	 27.700	 78.963	 2111.683
103707	 -0.219	 -0.426	  0.558	  0.601	  1.830	 -9.577	 -0.003	  0.002	  0.004	 27.700	 78.918	 2116.950
103757	 -0.218	 -0.422	  0.559	  0.643	  1.835	 -9.554	 -0.004	  0.003	  0.004	 27.700	 78.862	 2123.510
103807	 -0.220	 -0.426	  0.553	  0.635	  1.812	 -9.601	 -0.002	  0.002	  0.002	 27.700	 78.817	 2128.785
103857	 -0.219	 -0.425	  0.555	  0.631	  1.836	 -9.548	 -0.003	  0.004	  0.003	 27.700	 78.765	 2134.885
103907	 -0.218	 -0.430	  0.561	  0.625	  1.841	 -9.560	 -0.004	  0.002	  0.004	 27.700	 78.705	 2141.930
103957	 -0.219	 -0.425	  0.557	  0.634	  1.837	 -9.577	 -0.004	  0.002	  0.003	 27.700	 78.649	 2148.511
104007	 -0.220	 -0.433	  0.562	  0.627	  1.839	 -9.548	 -0.002	  0.003	  0.003	 27.700	 78.605	 2153.686
104057	 -0.219	 -0.428	  0.557	  0.624	  1.833	 -9.529	 -0.003	  0.003	  0.003	 27.700	 78.571	 2157.687
104107	 -0.221	 -0.428	  0.554	  0.659	  1.838	 -9.544	 -0.003	  0.002	  0.002	 27.700	 78.504	 2165.578
104157	 -0.219	 -0.429	  0.555	  0.625	  1.838	 -9.519	 -0.003	  0.003	  0.003	 27.700	 78.462	 2170.528
104207	 -0.220	 -0.429	  0.552	  0.653	  1.822	 -9.530	 -0.002	  0.003	  0.004	 27.700	 78.403	 2177.487
104257	 -0.219	 -0.426	  0.559	  0.618	  1.844	 -9.535	 -0.003	  0.002	  0.002	 27.700	 78.361	 2182.445
104307	 -0.221	 -0.430	  0.558	  0.624	  1.823	 -9.569	 -0.004	  0.000	  0.002	 27.700	 78.317	 2187.643
104357	 -0.220	 -0.427	  0.559	  0.629	  1.824	 -9.551	 -0.002	  0.003	  0.003	 27.700	 78.261	 2194.262
104407	 -0.220	 -0.428	  0.558	  0.613	  1.860	 -9.568	 -0.002	  0.004	  0.003	 27.700	 78.201	 2201.362
104457	 -0.219	 -0.426	  0.556	  0.627	  1.835	 -9.594	 -0.004	  0.002	  0.003	 27.700	 78.160	 2206.216
104507	 -0.219	 -0.425	  0.553	  0.662	  1.824	 -9.553	 -0.002	  0.003	  0.005	 27.700	 78.093	 2214.156
104557	 -0.218	 -0.429	  0.562	  0.608	  1.839	 -9.583	 -0.002	  0.003	  0.003	 27.700	 78.070	 2216.884
104607	 -0.220	 -0.428	  0.555	  0.613	  1.852	 -9.541	 -0.003	  0.003	  0.003	 27.700	 78.003	 2224.834
104657	 -0.221	 -0.430	  0.562	  0.648	  1.828	 -9.575	 -0.003	  0.002	  0.002	 27.700	 77.958	 2230.178
104707	 -0.219	 -0.428	  0.553	  0.654	  1.817	 -9.549	 -0.003	  0.004	  0.003	 27.700	 77.902	 2236.835
104757	 -0.221	 -0.431	  0.557	  0.590	  1.847	 -9.558	 -0.003	  0.001	  0.002	 27.700	 77.846	 2243.497
104806	 -0.218	 -0.427	  0.556	  0.632	  1.844	 -9.558	 -0.003	  0.003	  0.003	 27.700	 77.801	 2248.854
104856	 -0.219	 -0.429	  0.561	  0.624	  1.828	 -9.561	 -0.004	  0.003	  0.003	 27.700	 77.745	 2255.527
104906	 -0.218	 -0.427	  0.561	  0.623	  1.859	 -9.549	 -0.002	  0.003	  0.002	 27.700	 77.712	 2259.462
104956	 -0.218	 -0.426	  0.559	  0.616	  1.826	 -9.547	 -0.003	  0.001	  0.003	 27.700	 77.656	 2266.143
105006	 -0.219	 -0.430	  0.557	  0.612	  1.825	 -9.568	 -0.003	  0.004	  0.003	 27.700	 77.611	 2271.516
105056	 -0.220	 -0.428	  0.559	  0.627	  1.817	 -9.547	 -0.003	  0.002	  0.003	 27.700	 77.544	 2279.523
105106	 -0.220	 -0.428	  0.555	  0.620	  1.821	 -9.546	 -0.002	  0.001	  0.004	 27.700	 77.502	 2284.546
105156	 -0.220	 -0.430	  0.556	  0.624	  1.844	 -9.546	 -0.003	  0.004	  0.002	 27.700	 77.443	 2291.608
105206	 -0.218	 -0.420	  0.560	  0.611	  1.847	 -9.583	 -0.003	  0.003	  0.003	 27.700	 77.398	 2296.999
105256	 -0.220	 -0.428	  0.556	  0.615	  1.812	 -9.574	 -0.003	  0.001	  0.002	 27.700	 77.342	 2303.713
105306	 -0.221	 -0.433	  0.559	  0.639	  1.829	 -9.544	 -0.003	  0.004	  0.003	 27.700	 77.297	 2309.112
105356	 -0.218	 -0.421	  0.556	  0.605	  1.857	 -9.547	 -0.003	  0.002	  0.004	 27.800	 77.256	 2314.035
105406	 -0.220	 -0.426	  0.556	  0.628	  1.829	 -9.557	 -0.004	  0.001	  0.003	 27.700	 77.196	 2321.244
105456	 -0.219	 -0.429	  0.557	  0.650	  1.821	 -9.535	 -0.002	  0.003	  0.004	 27.700	 77.140	 2327.979
105506	 -0.221	 -0.430	  0.555	  0.600	  1.833	 -9.552	 -0.002	  0.003	  0.003	 27.800	 77.099	 2332.913
105556	 -0.220	 -0.418	  0.558	  0.626	  1.835	 -9.520	 -0.003	  0.002	  0.004	 27.800	 77.043	 2339.657
105606	 -0.219	 -0.431	  0.557	  0.615	  1.827	 -9.586	 -0.003	  0.003	  0.003	 27.800	 76.998	 2345.082
105656	 -0.220	 -0.425	  0.557	  0.638	  1.822	 -9.520	 -0.002	  0.001	  0.002	 27.700	 76.950	 2350.871
105706	 -0.220	 -0.424	  0.560	  0.632	  1.845	 -9.510	 -0.003	  0.003	  0.003	 27.700	 76.883	 2358.960
105756	 -0.220	 -0.425	  0.557	  0.625	  1.846	 -9.541	 -0.002	  0.004	  0.004	 27.800	 76.852	 2362.706
105806	 -0.216	 -0.428	  0.555	  0.617	  1.826	 -9.554	 -0.003	  0.003	  0.002	 27.800	 76.796	 2369.477
105856	 -0.217	 -0.428	  0.561	  0.590	  1.816	 -9.548	 -0.002	  0.001	  0.002	 27.800	 76.740	 2376.253
105906	 -0.217	 -0.428	  0.556	  0.627	  1.841	 -9.576	 -0.002	  0.002	  0.004	 27.800	 76.684	 2383.035
105956	 -0.220	 -0.428	  0.560	  0.632	  1.852	 -9.545	 -0.003	  0.004	  0.004	 27.800	 76.651	 2387.034
106006	 -0.219	 -0.424	  0.555	  0.639	  1.836	 -9.577	 -0.003	  0.002	  0.002	 27.800	 76.583	 2395.282
106056	 -0.217	 -0.428	  0.557	  0.613	  1.839	 -9.539	 -0.003	  0.002	  0.003	 27.800	 76.539	 2400.624
106106	 -0.221	 -0.428	  0.559	  0.617	  1.843	 -9.576	 -0.003	  0.002	  0.003	 27.800	 76.494	 2406.090
106156	 -0.220	 -0.429	  0.558	  0.625	  1.827	 -9.541	 -0.003	  0.004	  0.004	 27.800	 76.438	 2412.898
106206	 -0.219	 -0.422	  0.558	  0.599	  1.853	 -9.545	 -0.003	  0.000	  0.002	 27.800	 76.407	 2416.671
106256	 -0.222	 -0.421	  0.558	  0.628	  1.833	 -9.559	 -0.002	  0.001	  0.002	 27.800	 76.337	 2425.193
106306	 -0.221	 -0.430	  0.556	  0.626	  1.830	 -9.547	 -0.003	  0.004	  0.004	 27.800	 76.295	 2430.312
106356	 -0.218	 -0.427	  0.559	  0.600	  1.840	 -9.542	 -0.003	  0.002	  0.004	 27.800	 76.262	 2434.335
106406	 -0.220	 -0.427	  0.558	  0.608	  1.832	 -9.522	 -0.002	  0.003	  0.002	 27.800	 76.206	 2441.168
106456	 -0.221	 -0.427	  0.556	  0.618	  1.825	 -9.583	 -0.003	  0.003	  0.003	 27.800	 76.146	 2448.496
106506	 -0.218	 -0.432	  0.559	  0.610	  1.841	 -9.539	 -0.003	  0.003	  0.003	 27.800	 76.090	 2455.342
106556	 -0.220	 -0.425	  0.558	  0.618	  1.822	 -9.562	 -0.004	  0.003	  0.003	 27.800	 76.046	 2460.725
106606	 -0.219	 -0.429	  0.555	  0.622	  1.818	 -9.562	 -0.003	  0.004	  0.003	 27.800	 76.001	 2466.233
106656	 -0.219	 -0.425	  0.557	  0.627	  1.854	 -9.539	 -0.002	  0.003	  0.002	 27.800	 75.945	 2473.094
106706	 -0.221	 -0.427	  0.559	  0.632	  1.849	 -9.520	 -0.003	  0.003	  0.003	 27.800	 75.903	 2478.244
106756	 -0.218	 -0.424	  0.558	  0.614	  1.824	 -9.560	 -0.004	  0.002	  0.002	 27.800	 75.847	 2485.116
106806	 -0.220	 -0.429	  0.553	  0.608	  1.840	 -9.572	 -0.003	  0.003	  0.004	 27.800	 75.791	 2491.993
106856	 -0.220	 -0.427	  0.559	  0.633	  1.825	 -9.541	 -0.003	  0.000	  0.003	 27.800	 75.743	 2497.894
106906	 -0.220	 -0.427	  0.561	  0.640	  1.847	 -9.543	 -0.002	  0.002	  0.002	 27.800	 75.702	 2502.936
106956	 -0.219	 -0.426	  0.554	  0.614	  1.838	 -9.572	 -0.004	  0.002	  0.004	 27.800	 75.642	 2510.323
107006	 -0.221	 -0.427	  0.559	  0.632	  1.836	 -9.579	 -0.002	  0.002	  0.003	 27.800	 75.601	 2515.374
107056	 -0.220	 -0.428	  0.553	  0.617	  1.816	 -9.542	 -0.003	  0.002	  0.005	 27.800	 75.556	 2520.921
107106	 -0.219	 -0.420	  0.556	  0.616	  1.853	 -9.545	 -0.004	  0.003	  0.003	 27.800	 75.511	 2526.472
107156	 -0.220	 -0.426	  0.563	  0.624	  1.808	 -9.559	 -0.002	  0.002	  0.004	 27.800	 75.466	 2532.028
107206	 -0.219	 -0.424	  0.558	  0.605	  1.841	 -9.582	 -0.002	  0.004	  0.003	 27.800	 75.410	 2538.946
107256	 -0.220	 -0.431	  0.558	  0.641	  1.814	 -9.603	 -0.003	  0.002	  0.003	 27.800	 75.354	 2545.872
107306	 -0.220	 -0.426	  0.555	  0.639	  1.836	 -9.525	 -0.003	  0.001	  0.003	 27.800	 75.295	 2553.175
107356	 -0.218	 -0.425	  0.556	  0.651	  1.803	 -9.571	 -0.003	  0.002	  0.003	 27.800	 75.268	 2556.520
107406	 -0.219	 -0.429	  0.555	  0.605	  1.844	 -9.565	 -0.003	  0.003	  0.004	 27.800	 75.209	 2563.832
107456	 -0.221	 -0.432	  0.557	  0.625	  1.831	 -9.552	 -0.002	  0.001	  0.003	 27.800	 75.167	 2569.042
107506	 -0.219	 -0.426	  0.557	  0.634	  1.847	 -9.560	 -0.002	  0.003	  0.003	 27.800	 75.108	 2576.366
107556	 -0.220	 -0.425	  0.559	  0.623	  1.829	 -9.555	 -0.002	  0.003	  0.003	 27.800	 75.063	 2581.957
107606	 -0.219	 -0.427	  0.556	  0.613	  1.843	 -9.582	 -0.005	  0.002	  0.004	 27.800	 75.007	 2588.920
107656	 -0.219	 -0.426	  0.561	  0.629	  1.833	 -9.532	 -0.003	  0.002	  0.002	 27.800	 74.973	 2593.152
107706	 -0.218	 -0.421	  0.558	  0.637	  1.846	 -9.538	 -0.003	  0.003	  0.003	 27.800	 74.917	 2600.125
107756	 -0.220	 -0.424	  0.556	  0.621	  1.824	 -9.550	 -0.003	  0.003	  0.003	 27.800	 74.861	 2607.104
107806	 -0.218	 -0.428	  0.558	  0.616	  1.835	 -9.561	 -0.003	  0.004	  0.002	 27.800	 74.816	 2612.717
107856	 -0.220	 -0.423	  0.558	  0.639	  1.836	 -9.559	 -0.003	  0.003	  0.003	 27.800	 74.760	 2619.708
107906	 -0.221	 -0.431	  0.558	  0.625	  1.830	 -9.525	 -0.005	  0.002	  0.004	 27.800	 74.727	 2623.831
107956	 -0.217	 -0.424	  0.553	  0.637	  1.845	 -9.553	 -0.003	  0.004	  0.003	 27.800	 74.660	 2632.207
108006	 -0.220	 -0.427	  0.556	  0.605	  1.829	 -9.569	 -0.004	  0.003	  0.002	 27.800	 74.615	 2637.838
108056	 -0.218	 -0.426	  0.555	  0.632	  1.828	 -9.566	 -0.003	  0.002	  0.003	 27.800	 74.584	 2641.720
108106	 -0.218	 -0.426	  0.550	  0.619	  1.848	 -9.561	 -0.003	  0.002	  0.003	 27.800	 74.528	 2648.737
108156	 -0.218	 -0.430	  0.561	  0.608	  1.849	 -9.527	 -0.003	  0.004	  0.003	 27.800	 74.472	 2655.759
108206	 -0.220	 -0.430	  0.561	  0.627	  1.835	 -9.588	 -0.003	  0.002	  0.003	 27.800	 74.428	 2661.281
108256	 -0.218	 -0.426	  0.550	  0.622	  1.839	 -9.522	 -0.004	  0.003	  0.003	 27.800	 74.383	 2666.933
108306	 -0.220	 -0.427	  0.563	  0.625	  1.827	 -9.587	 -0.003	  0.001	  0.003	 27.800	 74.338	 2672.590
108356	 -0.219	 -0.419	  0.558	  0.616	  1.834	 -9.589	 -0.003	  0.001	  0.003	 27.800	 74.282	 2679.634
108406	 -0.219	 -0.424	  0.556	  0.617	  1.848	 -9.562	 -0.002	  0.003	  0.005	 27.800	 74.226	 2686.685
108456	 -0.217	 -0.431	  0.557	  0.647	  1.828	 -9.558	 -0.003	  0.003	  0.003	 27.800	 74.192	 2690.968
108507	 -0.220	 -0.423	  0.556	  0.635	  1.845	 -9.550	 -0.002	  0.003	  0.003	 27.800	 74.136	 2698.029
108556	 -0.221	 -0.426	  0.557	  0.631	  1.834	 -9.560	 -0.003	  0.005	  0.003	 27.800	 74.091	 2703.707
108606	 -0.220	 -0.430	  0.558	  0.614	  1.819	 -9.547	 -0.004	  0.003	  0.003	 27.800	 74.047	 2709.265
