Time	 MagX	 MagY	 MagZ	 AccelX	 AccelY	 AccelZ	 Yaw	 Pitch	 Roll	 Temperature	 Pressure	 Altitude
15348	 -0.120	 -0.026	  0.330	  0.098	 -0.053	 -9.662	 -0.004	  0.003	  0.005	 25.900	 99.302	 -99999.000
15398	 -0.119	 -0.014	  0.327	  0.086	 -0.075	 -9.733	 -0.004	  0.003	  0.006	 25.900	 99.290	 -99999.000
15448	 -0.119	 -0.027	  0.329	  0.102	 -0.087	 -9.678	 -0.003	  0.002	  0.004	 25.900	 99.286	 -99999.000
15498	 -0.117	 -0.024	  0.328	  0.113	 -0.058	 -9.692	 -0.003	  0.004	  0.005	 25.900	 99.279	 -99999.000
15548	 -0.118	 -0.027	  0.328	  0.095	 -0.070	 -9.601	 -0.004	  0.003	  0.003	 25.900	 99.290	 -99999.000
15598	 -0.121	 -0.022	  0.332	  0.110	 -0.094	 -9.653	 -0.004	  0.001	  0.006	 25.900	 99.290	 -99999.000
15648	 -0.121	 -0.028	  0.333	  0.088	 -0.063	 -9.708	 -0.002	  0.005	  0.005	 25.900	 99.290	 -99999.000
15698	 -0.119	 -0.024	  0.332	  0.124	 -0.078	 -9.701	 -0.004	  0.004	  0.006	 25.900	 99.286	 -99999.000
15748	 -0.120	 -0.027	  0.333	  0.083	 -0.064	 -9.657	 -0.003	  0.002	  0.006	 25.900	 99.279	 -99999.000
15799	 -0.119	 -0.028	  0.335	  0.098	 -0.079	 -9.748	 -0.004	  0.002	  0.005	 25.900	 99.279	 -99999.000
15849	 -0.119	 -0.024	  0.332	  0.067	 -0.032	 -9.610	 -0.004	  0.005	  0.004	 25.900	 99.286	 -99999.000
15899	 -0.120	 -0.028	  0.329	  0.114	 -0.064	 -9.670	 -0.004	  0.002	  0.004	 25.900	 99.279	 -99999.000
15949	 -0.117	 -0.028	  0.328	  0.116	 -0.069	 -9.581	 -0.003	  0.001	  0.003	 25.900	 99.290	 -99999.000
15999	 -0.118	 -0.027	  0.336	  0.101	 -0.077	 -9.764	 -0.003	  0.003	  0.003	 25.900	 99.284	 -99999.000
16049	 -0.117	 -0.023	  0.326	  0.108	 -0.083	 -9.668	 -0.002	  0.004	  0.006	 25.900	 99.302	 -99999.000
16099	 -0.119	 -0.024	  0.331	  0.127	 -0.106	 -9.648	 -0.002	  0.005	  0.005	 25.900	 99.279	 -99999.000
16149	 -0.118	 -0.026	  0.326	  0.083	 -0.049	 -9.627	 -0.003	  0.003	  0.005	 25.900	 99.279	 -99999.000
16199	 -0.117	 -0.028	  0.330	  0.123	 -0.078	 -9.630	 -0.003	  0.001	  0.004	 25.900	 99.279	 -99999.000
16249	 -0.120	 -0.029	  0.328	  0.094	 -0.057	 -9.734	 -0.003	  0.004	  0.004	 25.900	 99.290	 -99999.000
16299	 -0.122	 -0.028	  0.332	  0.083	 -0.082	 -9.578	 -0.002	  0.003	  0.005	 25.900	 99.290	 -99999.000
16349	 -0.118	 -0.025	  0.332	  0.076	 -0.077	 -9.689	 -0.004	  0.003	  0.005	 25.900	 99.290	 -99999.000
16399	 -0.120	 -0.027	  0.327	  0.083	 -0.053	 -9.605	 -0.002	  0.003	  0.005	 25.900	 99.295	 -99999.000
16448	 -0.118	 -0.017	  0.330	  0.097	 -0.066	 -9.698	 -0.003	  0.002	  0.004	 25.900	 99.279	 -99999.000
16498	 -0.121	 -0.028	  0.330	  0.118	 -0.066	 -9.611	 -0.003	  0.003	  0.005	 25.900	 99.290	 -99999.000
16549	 -0.118	 -0.030	  0.331	  0.099	 -0.082	 -9.695	 -0.003	  0.003	  0.005	 25.900	 99.279	 -99999.000
16599	 -0.118	 -0.028	  0.327	  0.087	 -0.088	 -9.609	 -0.003	  0.004	  0.005	 25.900	 99.290	 -99999.000
16649	 -0.119	 -0.029	  0.327	  0.102	 -0.076	 -9.700	 -0.005	  0.003	  0.005	 25.900	 99.290	 -99999.000
16699	 -0.118	 -0.023	  0.331	  0.122	 -0.057	 -9.629	 -0.003	  0.003	  0.005	 25.900	 99.279	 -99999.000
16749	 -0.119	 -0.026	  0.333	  0.088	 -0.077	 -9.683	 -0.005	  0.003	  0.004	 25.900	 99.284	 -99999.000
16799	 -0.119	 -0.026	  0.328	  0.080	 -0.057	 -9.627	 -0.004	  0.002	  0.004	 25.900	 99.295	 -99999.000
16849	 -0.118	 -0.028	  0.329	  0.105	 -0.069	 -9.689	 -0.003	  0.002	  0.005	 25.900	 99.284	 -99999.000
16899	 -0.122	 -0.029	  0.330	  0.094	 -0.054	 -9.631	 -0.002	  0.003	  0.006	 25.900	 99.279	 -99999.000
16949	 -0.122	 -0.030	  0.331	  0.117	 -0.056	 -9.675	 -0.003	  0.002	  0.004	 25.900	 99.284	 -99999.000
16999	 -0.119	 -0.022	  0.332	  0.079	 -0.069	 -9.636	 -0.003	  0.003	  0.005	 25.900	 99.295	 -99999.000
17049	 -0.118	 -0.026	  0.333	  0.099	 -0.059	 -9.643	 -0.003	  0.002	  0.005	 25.900	 99.295	 -99999.000
17099	 -0.118	 -0.023	  0.330	  0.100	 -0.076	 -9.690	 -0.003	  0.003	  0.005	 25.900	 99.295	 -99999.000
17149	 -0.117	 -0.029	  0.330	  0.117	 -0.083	 -9.617	 -0.004	  0.002	  0.005	 25.900	 99.284	 -99999.000
17199	 -0.119	 -0.028	  0.333	  0.059	 -0.075	 -9.690	 -0.003	  0.004	  0.006	 25.900	 99.284	 -99999.000
17250	 -0.119	 -0.028	  0.330	  0.110	 -0.039	 -9.597	 -0.003	  0.003	  0.004	 25.900	 99.284	 -99999.000
17299	 -0.119	 -0.016	  0.332	  0.113	 -0.098	 -9.670	 -0.003	  0.002	  0.006	 25.900	 99.284	 -99999.000
17349	 -0.117	 -0.024	  0.335	  0.080	 -0.073	 -9.594	 -0.003	  0.002	  0.005	 25.900	 99.295	 -99999.000
17399	 -0.118	 -0.029	  0.335	  0.084	 -0.063	 -9.704	 -0.004	  0.002	  0.005	 25.900	 99.295	 -99999.000
17449	 -0.118	 -0.027	  0.329	  0.066	 -0.088	 -9.614	 -0.003	  0.003	  0.004	 25.900	 99.295	 -99999.000
17499	 -0.119	 -0.031	  0.324	  0.140	 -0.072	 -9.706	 -0.004	  0.002	  0.005	 25.900	 99.295	 -99999.000
17549	 -0.119	 -0.027	  0.327	  0.058	 -0.065	 -9.589	 -0.003	  0.002	  0.005	 25.900	 99.295	 -99999.000
17599	 -0.119	 -0.025	  0.331	  0.124	 -0.066	 -9.681	 -0.004	  0.002	  0.004	 25.900	 99.299	 -99999.000
17649	 -0.118	 -0.026	  0.330	  0.086	 -0.072	 -9.596	 -0.003	  0.003	  0.006	 25.900	 99.284	 -99999.000
17699	 -0.120	 -0.019	  0.332	  0.092	 -0.069	 -9.717	 -0.004	  0.003	  0.004	 25.900	 99.284	 -99999.000
17749	 -0.119	 -0.026	  0.324	  0.118	 -0.095	 -9.622	 -0.003	  0.002	  0.004	 25.900	 99.284	 -99999.000
17799	 -0.118	 -0.028	  0.331	  0.073	 -0.051	 -9.682	 -0.004	  0.003	  0.004	 25.900	 99.284	 -99999.000
17849	 -0.118	 -0.028	  0.333	  0.098	 -0.078	 -9.647	 -0.003	  0.002	  0.005	 25.900	 99.284	 -99999.000
17900	 -0.120	 -0.029	  0.329	  0.111	 -0.084	 -9.664	 -0.004	  0.002	  0.006	 25.900	 99.284	 -99999.000
17949	 -0.121	 -0.021	  0.330	  0.089	 -0.066	 -9.609	 -0.003	  0.004	  0.005	 25.900	 99.284	 -99999.000
18000	 -0.119	 -0.024	  0.331	  0.100	 -0.069	 -9.612	 -0.004	  0.002	  0.004	 25.900	 99.284	 -99999.000
18050	 -0.118	 -0.025	  0.331	  0.108	 -0.066	 -9.671	 -0.003	  0.004	  0.005	 25.900	 99.299	 -99999.000
18100	 -0.118	 -0.028	  0.329	  0.085	 -0.075	 -9.618	 -0.003	  0.003	  0.006	 25.900	 99.288	 -99999.000
18150	 -0.118	 -0.027	  0.328	  0.088	 -0.044	 -9.656	 -0.004	  0.002	  0.005	 25.900	 99.299	 -99999.000
18200	 -0.119	 -0.027	  0.330	  0.100	 -0.094	 -9.623	 -0.003	  0.002	  0.004	 25.900	 99.288	 -99999.000
18250	 -0.117	 -0.022	  0.334	  0.120	 -0.068	 -9.667	 -0.003	  0.004	  0.005	 25.900	 99.299	 -99999.000
18300	 -0.120	 -0.026	  0.331	  0.099	 -0.052	 -9.629	 -0.003	  0.003	  0.004	 25.900	 99.284	 -99999.000
18351	 -0.118	 -0.026	  0.329	  0.102	 -0.085	 -9.651	 -0.005	  0.002	  0.005	 25.900	 99.288	 -99999.000
18401	 -0.119	 -0.022	  0.328	  0.098	 -0.089	 -9.620	 -0.004	  0.003	  0.006	 25.900	 99.284	 -99999.000
18451	 -0.119	 -0.028	  0.328	  0.100	 -0.077	 -9.676	 -0.004	  0.002	  0.005	 25.900	 99.284	 -99999.000
18501	 -0.118	 -0.025	  0.333	  0.068	 -0.080	 -9.622	 -0.002	  0.003	  0.005	 25.900	 99.277	 -99999.000
18551	 -0.119	 -0.027	  0.331	  0.103	 -0.068	 -9.702	 -0.003	  0.002	  0.005	 25.900	 99.288	 -99999.000
18601	 -0.120	 -0.030	  0.330	  0.090	 -0.072	 -9.603	 -0.003	  0.003	  0.005	 25.900	 99.284	 -99999.000
18651	 -0.119	 -0.020	  0.330	  0.121	 -0.080	 -9.645	 -0.004	  0.003	  0.004	 25.900	 99.299	 -99999.000
18701	 -0.121	 -0.021	  0.335	  0.088	 -0.057	 -9.632	 -0.002	  0.002	  0.005	 25.900	 99.277	 -99999.000
18751	 -0.119	 -0.027	  0.328	  0.125	 -0.071	 -9.720	 -0.004	  0.002	  0.004	 25.900	 99.288	 -99999.000
18801	 -0.121	 -0.024	  0.331	  0.119	 -0.067	 -9.583	 -0.003	  0.003	  0.005	 25.900	 99.288	 -99999.000
18851	 -0.121	 -0.026	  0.327	  0.095	 -0.069	 -9.715	 -0.004	  0.002	  0.005	 25.900	 99.288	 -99999.000
18901	 -0.119	 -0.028	  0.331	  0.116	 -0.066	 -9.594	 -0.002	  0.004	  0.005	 25.900	 99.288	 -99999.000
18951	 -0.120	 -0.018	  0.332	  0.095	 -0.065	 -9.669	 -0.003	  0.001	  0.004	 25.900	 99.288	 -99999.000
19001	 -0.119	 -0.015	  0.332	  0.097	 -0.055	 -9.632	 -0.003	  0.004	  0.004	 25.900	 99.299	 -99999.000
19051	 -0.120	 -0.026	  0.329	  0.111	 -0.077	 -9.633	 -0.001	  0.003	  0.006	 25.900	 99.277	 -99999.000
19101	 -0.120	 -0.025	  0.331	  0.109	 -0.055	 -9.695	 -0.004	  0.003	  0.004	 25.900	 99.288	 -99999.000
19151	 -0.117	 -0.029	  0.334	  0.104	 -0.062	 -9.645	 -0.003	  0.002	  0.004	 25.900	 99.288	 -99999.000
19201	 -0.119	 -0.024	  0.329	  0.094	 -0.083	 -9.684	 -0.003	  0.003	  0.004	 25.900	 99.288	 -99999.000
19251	 -0.119	 -0.030	  0.327	  0.069	 -0.056	 -9.651	 -0.003	  0.002	  0.005	 25.900	 99.288	 -99999.000
19301	 -0.118	 -0.022	  0.326	  0.149	 -0.044	 -9.677	 -0.004	  0.004	  0.004	 25.900	 99.288	 -99999.000
19351	 -0.120	 -0.027	  0.331	  0.126	 -0.065	 -9.580	 -0.003	  0.004	  0.004	 25.900	 99.281	 -99999.000
19401	 -0.118	 -0.026	  0.329	  0.092	 -0.079	 -9.683	 -0.002	  0.004	  0.005	 25.900	 99.292	 -99999.000
19451	 -0.117	 -0.027	  0.326	  0.121	 -0.088	 -9.630	 -0.003	  0.003	  0.006	 25.900	 99.277	 -99999.000
19501	 -0.119	 -0.018	  0.329	  0.093	 -0.049	 -9.691	 -0.003	  0.003	  0.004	 25.900	 99.292	 -99999.000
19551	 -0.119	 -0.029	  0.334	  0.132	 -0.080	 -9.598	 -0.004	  0.004	  0.004	 25.900	 99.292	 -99999.000
19601	 -0.118	 -0.025	  0.331	  0.083	 -0.099	 -9.706	 -0.004	  0.002	  0.006	 25.900	 99.292	 -99999.000
19651	 -0.119	 -0.025	  0.328	  0.126	 -0.065	 -9.629	 -0.002	  0.003	  0.004	 25.900	 99.299	 -99999.000
19701	 -0.118	 -0.031	  0.326	  0.104	 -0.065	 -9.695	 -0.004	  0.002	  0.005	 25.900	 99.277	 -99999.000
19751	 -0.116	 -0.019	  0.333	  0.102	 -0.066	 -9.624	 -0.002	  0.004	  0.005	 25.900	 99.288	 -99999.000
19801	 -0.118	 -0.024	  0.333	  0.112	 -0.091	 -9.697	 -0.005	  0.002	  0.004	 25.900	 99.288	 -99999.000
19851	 -0.119	 -0.027	  0.329	  0.062	 -0.045	 -9.597	 -0.003	  0.003	  0.005	 25.900	 99.281	 -99999.000
19901	 -0.117	 -0.029	  0.331	  0.136	 -0.069	 -9.724	 -0.003	  0.002	  0.004	 25.900	 99.288	 -99999.000
19951	 -0.120	 -0.025	  0.326	  0.096	 -0.068	 -9.600	 -0.003	  0.004	  0.005	 25.900	 99.292	 -99999.000
20001	 -0.118	 -0.024	  0.336	  0.104	 -0.082	 -9.653	 -0.005	  0.001	  0.004	 25.900	 99.288	 -99999.000
20051	 -0.119	 -0.025	  0.328	  0.108	 -0.067	 -9.647	 -0.004	  0.004	  0.006	 25.900	 99.292	 -99999.000
20101	 -0.119	 -0.028	  0.329	  0.116	 -0.071	 -9.678	 -0.003	  0.002	  0.005	 25.900	 99.288	 -99999.000
20151	 -0.120	 -0.028	  0.328	  0.083	 -0.050	 -9.670	 -0.005	  0.003	  0.005	 25.900	 99.277	 -99999.000
20201	 -0.118	 -0.029	  0.330	  0.135	 -0.099	 -9.634	 -0.004	  0.003	  0.004	 25.900	 99.281	 -99999.000
20251	 -0.119	 -0.025	  0.332	  0.108	 -0.073	 -9.676	 -0.003	  0.003	  0.004	 25.900	 99.281	 -99999.000
20301	 -0.118	 -0.027	  0.331	  0.107	 -0.046	 -9.646	 -0.005	  0.003	  0.004	 25.900	 99.281	 -99999.000
20351	 -0.118	 -0.027	  0.328	  0.112	 -0.055	 -9.689	 -0.004	  0.003	  0.004	 25.900	 99.292	 -99999.000
20402	 -0.118	 -0.028	  0.330	  0.119	 -0.062	 -9.627	 -0.003	  0.003	  0.006	 25.900	 99.277	 -99999.000
20452	 -0.117	 -0.030	  0.326	  0.079	 -0.070	 -9.684	 -0.003	  0.004	  0.004	 25.900	 99.292	 -99999.000
20502	 -0.119	 -0.022	  0.330	  0.142	 -0.071	 -9.637	 -0.003	  0.002	  0.006	 25.900	 99.292	 -99999.000
20552	 -0.119	 -0.031	  0.328	  0.067	 -0.062	 -9.690	 -0.003	  0.002	  0.006	 25.900	 99.292	 -99999.000
20602	 -0.119	 -0.026	  0.331	  0.094	 -0.091	 -9.622	 -0.002	  0.003	  0.004	 25.900	 99.281	 -99999.000
20652	 -0.121	 -0.028	  0.330	  0.133	 -0.093	 -9.684	 -0.005	  0.002	  0.005	 25.900	 99.281	 -99999.000
20702	 -0.119	 -0.026	  0.327	  0.043	 -0.065	 -9.616	 -0.002	  0.003	  0.004	 25.900	 99.292	 -99999.000
20752	 -0.118	 -0.031	  0.329	  0.125	 -0.100	 -9.705	 -0.003	  0.003	  0.004	 26.000	 99.296	 -99999.000
20802	 -0.118	 -0.029	  0.330	  0.109	 -0.087	 -9.605	 -0.003	  0.003	  0.005	 25.900	 99.281	 -99999.000
20852	 -0.117	 -0.029	  0.335	  0.099	 -0.060	 -9.703	 -0.003	  0.002	  0.000	 25.900	 99.281	 -99999.000
20902	 -0.120	 -0.027	  0.332	  0.088	 -0.067	 -9.583	 -0.002	  0.004	  0.005	 25.900	 99.292	 -99999.000
20952	 -0.120	 -0.027	  0.335	  0.070	 -0.067	 -9.680	 -0.004	  0.003	  0.004	 26.000	 99.285	 -99999.000
21002	 -0.119	 -0.025	  0.330	  0.109	 -0.042	 -9.587	 -0.002	  0.003	  0.005	 25.900	 99.292	 -99999.000
21052	 -0.122	 -0.028	  0.332	  0.083	 -0.063	 -9.698	 -0.003	  0.002	  0.005	 25.900	 99.281	 -99999.000
21102	 -0.118	 -0.018	  0.335	  0.097	 -0.091	 -9.647	 -0.002	  0.003	  0.003	 25.900	 99.292	 -99999.000
21152	 -0.121	 -0.019	  0.335	  0.110	 -0.086	 -9.643	 -0.003	  0.003	  0.005	 25.900	 99.270	 -99999.000
21202	 -0.119	 -0.025	  0.333	  0.094	 -0.073	 -9.640	 -0.003	  0.003	  0.005	 25.900	 99.285	 -99999.000
21252	 -0.120	 -0.019	  0.331	  0.111	 -0.071	 -9.600	 -0.004	  0.002	  0.005	 25.900	 99.292	 -99999.000
21302	 -0.120	 -0.025	  0.337	  0.087	 -0.087	 -9.725	 -0.004	  0.003	  0.005	 26.000	 99.292	 -99999.000
25755	 -0.120	 -0.030	  0.334	  0.057	 -0.092	 -9.633	 -0.003	  0.003	  0.005	 26.000	 99.282	  0.420
25805	 -0.117	 -0.025	  0.320	  0.133	 -0.107	 -9.659	 -0.003	  0.001	  0.004	 26.000	 99.282	  0.420
25855	 -0.118	 -0.027	  0.336	  0.094	 -0.067	 -9.665	 -0.004	  0.002	  0.006	 26.000	 99.282	  0.420
25905	 -0.120	 -0.029	  0.329	  0.106	 -0.061	 -9.700	 -0.004	  0.002	  0.004	 26.000	 99.287	 -0.028
25955	 -0.117	 -0.025	  0.331	  0.117	 -0.080	 -9.672	 -0.004	  0.002	  0.006	 26.000	 99.282	  0.420
26005	 -0.117	 -0.022	  0.333	  0.094	 -0.052	 -9.644	 -0.003	  0.002	  0.005	 26.000	 99.298	 -1.012
26055	 -0.116	 -0.027	  0.329	  0.089	 -0.065	 -9.641	 -0.003	  0.003	  0.004	 26.000	 99.282	  0.420
26105	 -0.118	 -0.027	  0.329	  0.109	 -0.089	 -9.639	 -0.006	  0.003	  0.005	 26.000	 99.282	  0.420
26155	 -0.116	 -0.026	  0.335	  0.111	 -0.080	 -9.618	 -0.003	  0.001	  0.003	 26.000	 99.282	  0.420
26205	 -0.118	 -0.016	  0.331	  0.105	 -0.096	 -9.643	 -0.005	  0.001	  0.006	 26.000	 99.271	  1.405
26255	 -0.120	 -0.023	  0.332	  0.091	 -0.093	 -9.672	 -0.003	  0.003	  0.005	 26.000	 99.287	 -0.028
26305	 -0.116	 -0.027	  0.332	  0.121	 -0.082	 -9.650	 -0.003	  0.002	  0.004	 26.000	 99.293	 -0.565
26355	 -0.119	 -0.025	  0.329	  0.109	 -0.081	 -9.657	 -0.004	  0.002	  0.005	 26.000	 99.287	 -0.028
26405	 -0.117	 -0.029	  0.334	  0.073	 -0.083	 -9.658	 -0.003	  0.003	  0.005	 26.000	 99.282	  0.420
26455	 -0.120	 -0.023	  0.327	  0.103	 -0.059	 -9.684	 -0.003	  0.002	  0.005	 26.000	 99.282	  0.420
26505	 -0.118	 -0.023	  0.333	  0.081	 -0.061	 -9.652	 -0.004	  0.004	  0.005	 26.000	 99.271	  1.405
26555	 -0.117	 -0.028	  0.329	  0.102	 -0.065	 -9.666	 -0.004	  0.003	  0.005	 26.000	 99.287	 -0.028
26605	 -0.119	 -0.029	  0.326	  0.109	 -0.099	 -9.655	 -0.003	  0.002	  0.006	 26.000	 99.287	 -0.028
26655	 -0.121	 -0.027	  0.331	  0.075	 -0.055	 -9.658	 -0.003	  0.002	  0.004	 26.000	 99.275	  1.047
26705	 -0.117	 -0.029	  0.333	  0.095	 -0.066	 -9.657	 -0.003	  0.002	  0.004	 26.000	 99.287	 -0.028
26755	 -0.118	 -0.022	  0.331	  0.132	 -0.104	 -9.645	 -0.003	  0.002	  0.005	 26.000	 99.287	 -0.028
26805	 -0.121	 -0.024	  0.335	  0.084	 -0.039	 -9.636	 -0.004	  0.004	  0.006	 26.000	 99.282	  0.420
26855	 -0.118	 -0.018	  0.329	  0.084	 -0.091	 -9.660	 -0.004	  0.002	  0.005	 26.000	 99.275	  1.047
26905	 -0.117	 -0.025	  0.330	  0.123	 -0.076	 -9.635	 -0.004	  0.002	  0.004	 26.000	 99.287	 -0.028
26955	 -0.119	 -0.024	  0.331	  0.074	 -0.058	 -9.619	 -0.003	  0.002	  0.004	 26.000	 99.287	 -0.028
27005	 -0.120	 -0.027	  0.331	  0.118	 -0.070	 -9.711	 -0.002	  0.003	  0.003	 26.000	 99.298	 -1.012
27055	 -0.119	 -0.028	  0.334	  0.113	 -0.064	 -9.623	 -0.004	  0.002	  0.007	 26.000	 99.287	 -0.028
27106	 -0.118	 -0.026	  0.326	  0.071	 -0.048	 -9.664	 -0.003	  0.003	  0.004	 26.000	 99.287	 -0.028
27156	 -0.120	 -0.026	  0.334	  0.120	 -0.102	 -9.625	 -0.002	  0.004	  0.004	 26.000	 99.302	 -1.371
27206	 -0.117	 -0.026	  0.330	  0.077	 -0.045	 -9.677	 -0.003	  0.003	  0.005	 26.000	 99.291	 -0.386
27256	 -0.117	 -0.029	  0.332	  0.103	 -0.072	 -9.663	 -0.002	  0.002	  0.005	 26.000	 99.275	  1.047
27306	 -0.119	 -0.016	  0.332	  0.120	 -0.085	 -9.628	 -0.001	  0.003	  0.005	 26.000	 99.287	 -0.028
27356	 -0.117	 -0.028	  0.328	  0.117	 -0.084	 -9.656	 -0.000	  0.002	  0.006	 26.000	 99.287	 -0.028
27406	 -0.119	 -0.019	  0.333	  0.095	 -0.060	 -9.630	 -0.004	  0.001	  0.006	 26.000	 99.287	 -0.028
27456	 -0.120	 -0.022	  0.331	  0.085	 -0.083	 -9.669	 -0.002	  0.002	  0.003	 26.000	 99.298	 -1.012
27506	 -0.119	 -0.025	  0.333	  0.123	 -0.073	 -9.659	 -0.004	  0.002	  0.005	 26.000	 99.275	  1.047
27556	 -0.119	 -0.027	  0.335	  0.059	 -0.066	 -9.625	 -0.002	  0.004	  0.005	 26.000	 99.291	 -0.386
27606	 -0.118	 -0.028	  0.334	  0.117	 -0.104	 -9.656	 -0.003	  0.003	  0.004	 26.000	 99.287	 -0.028
27656	 -0.119	 -0.024	  0.328	  0.131	 -0.069	 -9.627	 -0.003	  0.003	  0.006	 26.000	 99.291	 -0.386
27706	 -0.116	 -0.026	  0.332	  0.060	 -0.051	 -9.624	 -0.004	  0.003	  0.005	 26.000	 99.291	 -0.386
27756	 -0.120	 -0.026	  0.331	  0.131	 -0.082	 -9.617	 -0.003	  0.004	  0.004	 26.000	 99.275	  1.047
27806	 -0.120	 -0.016	  0.333	  0.113	 -0.088	 -9.668	 -0.005	  0.002	  0.004	 26.000	 99.291	 -0.386
27856	 -0.120	 -0.019	  0.331	  0.097	 -0.066	 -9.627	 -0.003	  0.003	  0.004	 26.000	 99.280	  0.599
27906	 -0.119	 -0.033	  0.330	  0.116	 -0.087	 -9.703	 -0.005	  0.002	  0.004	 26.000	 99.291	 -0.386
27956	 -0.119	 -0.023	  0.334	  0.069	 -0.059	 -9.676	 -0.003	  0.005	  0.005	 26.000	 99.287	 -0.028
28006	 -0.119	 -0.031	  0.328	  0.112	 -0.086	 -9.649	 -0.003	  0.002	  0.006	 26.000	 99.291	 -0.386
28056	 -0.121	 -0.027	  0.334	  0.097	 -0.055	 -9.602	 -0.004	  0.002	  0.004	 26.000	 99.280	  0.599
28106	 -0.121	 -0.014	  0.337	  0.072	 -0.063	 -9.633	 -0.004	  0.004	  0.005	 26.000	 99.275	  1.047
28156	 -0.116	 -0.028	  0.332	  0.114	 -0.051	 -9.609	 -0.005	  0.003	  0.003	 26.000	 99.280	  0.599
28206	 -0.118	 -0.026	  0.328	  0.130	 -0.102	 -9.642	 -0.003	  0.005	  0.006	 26.000	 99.291	 -0.386
28256	 -0.117	 -0.027	  0.336	  0.080	  0.001	 -9.678	 -0.004	 -0.011	  0.004	 26.000	 99.280	  0.599
28307	 -0.120	 -0.022	  0.328	  1.489	  0.725	 -9.663	  0.045	  0.154	 -0.215	 26.000	 99.291	 -0.386
28356	 -0.122	 -0.031	  0.334	  0.142	 -0.285	 -9.332	  0.011	 -0.059	 -0.812	 26.000	 99.287	 -0.028
28406	 -0.118	 -0.021	  0.335	 -0.513	  0.200	 -9.389	  0.091	  0.019	  0.093	 26.000	 99.295	 -0.744
28456	 -0.112	 -0.020	  0.340	  0.558	 -0.353	 -8.940	  0.671	 -0.482	  0.075	 26.000	 99.291	 -0.386
28506	 -0.095	  0.018	  0.339	 -0.884	 -0.619	 -9.186	  1.458	 -1.413	  0.370	 26.000	 99.268	  1.674
28556	 -0.069	  0.033	  0.340	 -1.136	 -1.776	 -10.006	  0.837	 -0.804	  0.109	 26.000	 99.280	  0.599
28606	 -0.064	  0.042	  0.338	 -1.541	 -1.967	 -9.782	 -0.154	  0.042	 -0.005	 26.000	 99.280	  0.599
28656	 -0.072	  0.031	  0.340	 -1.739	 -0.787	 -8.894	 -0.363	  0.293	 -0.690	 26.000	 99.280	  0.599
28706	 -0.077	  0.024	  0.340	 -1.244	 -0.789	 -9.523	  0.025	 -0.005	  0.161	 26.000	 99.291	 -0.386
28756	 -0.072	  0.031	  0.343	 -0.958	 -1.282	 -9.385	  0.338	 -0.157	  0.688	 26.000	 99.280	  0.599
28806	 -0.068	  0.047	  0.340	 -1.470	 -1.672	 -9.486	  0.320	 -0.326	 -0.070	 26.000	 99.280	  0.599
28856	 -0.068	  0.037	  0.341	 -1.817	 -1.330	 -9.590	 -0.192	  0.200	 -0.204	 26.000	 99.291	 -0.386
28906	 -0.066	  0.036	  0.342	 -1.186	 -0.989	 -9.247	  0.068	 -0.086	 -0.055	 26.000	 99.291	 -0.386
28957	 -0.073	  0.031	  0.340	 -0.754	 -1.131	 -9.242	 -0.233	  0.193	 -0.125	 26.000	 99.280	  0.599
29006	 -0.071	  0.032	  0.340	 -0.956	 -2.204	 -9.309	  0.421	 -0.486	 -0.129	 26.000	 99.280	  0.599
29057	 -0.064	  0.039	  0.338	 -1.345	 -1.800	 -9.483	  0.219	 -0.070	 -0.367	 26.000	 99.280	  0.599
29107	 -0.064	  0.041	  0.338	 -1.137	 -2.047	 -8.334	  0.208	 -0.051	 -0.162	 26.000	 99.280	  0.599
29157	 -0.059	  0.050	  0.334	 -1.375	 -2.500	 -6.699	  0.565	 -0.297	 -0.392	 26.000	 99.284	  0.241
29207	 -0.057	  0.055	  0.329	 -1.976	 -2.572	 -9.177	  0.732	 -0.410	 -0.326	 26.000	 99.295	 -0.744
29257	 -0.045	  0.068	  0.333	 -2.033	 -3.086	 -10.633	  0.217	 -0.378	 -0.138	 26.000	 99.280	  0.599
29307	 -0.043	  0.058	  0.336	 -2.091	 -3.190	 -11.961	 -0.345	  0.187	 -0.562	 26.000	 99.284	  0.241
29357	 -0.045	  0.029	  0.347	 -2.399	 -2.677	 -11.387	 -1.667	  0.205	 -0.521	 26.000	 99.284	  0.241
29407	 -0.049	 -0.005	  0.358	 -1.503	 -1.602	 -8.409	 -1.193	  0.680	 -0.607	 26.000	 99.284	  0.241
29457	 -0.052	 -0.019	  0.368	 -1.780	 -1.431	 -9.199	  0.443	  0.047	 -0.702	 26.000	 99.273	  1.226
29507	 -0.054	 -0.026	  0.384	 -2.338	 -1.221	 -9.031	 -0.476	  0.130	 -0.593	 26.000	 99.291	 -0.386
29557	 -0.048	 -0.028	  0.400	 -1.271	 -1.083	 -10.165	 -0.215	 -0.322	 -0.520	 26.000	 99.284	  0.241
29607	 -0.047	 -0.024	  0.411	 -0.459	 -0.798	 -8.803	 -0.472	  0.311	 -0.453	 26.000	 99.273	  1.226
29657	 -0.057	 -0.033	  0.417	  0.004	 -0.605	 -10.455	 -0.433	  0.053	 -0.262	 26.000	 99.295	 -0.744
29707	 -0.063	 -0.046	  0.433	  0.551	 -0.447	 -7.859	 -0.904	  0.263	 -0.279	 26.000	 99.284	  0.241
29757	 -0.059	 -0.050	  0.446	 -0.631	 -0.279	 -8.893	 -0.147	 -0.424	 -0.372	 26.000	 99.280	  0.599
29807	 -0.053	 -0.045	  0.454	 -0.946	 -0.878	 -10.170	  0.293	 -0.061	 -0.331	 26.000	 99.273	  1.226
29857	 -0.053	 -0.045	  0.462	 -1.902	 -0.682	 -10.572	 -0.508	  0.012	 -0.473	 26.000	 99.280	  0.599
29907	 -0.058	 -0.041	  0.471	 -1.318	 -0.976	 -10.117	 -0.033	  0.229	 -0.354	 26.000	 99.284	  0.241
29957	 -0.067	 -0.035	  0.481	 -1.271	 -1.179	 -9.982	 -0.419	  0.222	 -0.746	 26.000	 99.284	  0.241
30007	 -0.079	 -0.040	  0.488	 -0.986	 -0.224	 -9.372	 -0.463	  0.223	 -0.779	 26.000	 99.295	 -0.744
30057	 -0.087	 -0.035	  0.495	  0.060	 -0.934	 -9.972	 -0.243	  0.285	 -0.882	 26.000	 99.284	  0.241
30107	 -0.102	 -0.048	  0.499	 -0.408	 -0.604	 -10.167	 -0.326	  0.507	 -1.367	 26.000	 99.284	  0.241
30157	 -0.117	 -0.069	  0.498	  0.244	  0.163	 -9.314	 -0.837	  0.121	 -1.418	 26.000	 99.284	  0.241
30207	 -0.131	 -0.097	  0.494	  0.127	  1.123	 -9.125	 -0.063	  0.668	 -1.482	 26.000	 99.273	  1.226
30257	 -0.154	 -0.103	  0.482	  0.952	  0.703	 -9.460	 -0.337	  0.579	 -1.149	 26.000	 99.284	  0.241
30307	 -0.172	 -0.127	  0.471	  1.471	  0.431	 -8.948	  0.242	  0.640	 -1.679	 26.000	 99.284	  0.241
30357	 -0.181	 -0.145	  0.467	  1.613	  0.606	 -9.104	 -0.047	  0.408	 -1.996	 26.000	 99.273	  1.226
30407	 -0.182	 -0.174	  0.462	  1.952	  1.114	 -8.871	 -0.022	  0.275	 -2.086	 26.000	 99.273	  1.226
30457	 -0.175	 -0.200	  0.454	  1.342	  1.426	 -9.204	  0.126	  0.479	 -2.270	 26.000	 99.284	  0.241
30507	 -0.168	 -0.228	  0.448	 -0.547	  0.489	 -10.157	 -0.197	  0.669	 -2.259	 26.000	 99.288	 -0.118
30557	 -0.164	 -0.260	  0.427	  0.355	  2.725	 -7.633	 -0.119	  0.788	 -1.956	 26.100	 99.288	 -0.118
30607	 -0.161	 -0.277	  0.422	  0.716	  3.261	 -8.329	  0.216	  0.522	 -0.891	 26.000	 99.284	  0.241
30657	 -0.150	 -0.270	  0.425	  2.322	  1.849	 -8.315	  0.568	  0.241	 -0.543	 26.000	 99.284	  0.241
30707	 -0.142	 -0.261	  0.431	  1.779	  0.508	 -8.572	  0.451	 -0.412	 -0.791	 26.000	 99.284	  0.241
30757	 -0.119	 -0.244	  0.439	 -0.422	 -0.498	 -12.392	  0.443	  0.124	 -1.174	 26.000	 99.284	  0.241
30807	 -0.107	 -0.247	  0.431	  0.643	  0.979	 -8.488	 -0.221	  0.222	 -1.075	 26.000	 99.277	  0.868
30857	 -0.096	 -0.243	  0.433	  1.417	  1.587	 -8.972	  0.736	 -0.302	 -0.684	 26.100	 99.277	  0.868
30907	 -0.075	 -0.228	  0.433	 -0.137	  0.323	 -10.923	  0.152	 -0.717	 -0.698	 26.000	 99.288	 -0.118
30958	 -0.050	 -0.232	  0.429	  0.094	 -0.220	 -10.932	 -0.007	 -0.564	 -0.668	 26.100	 99.288	 -0.118
31008	 -0.024	 -0.226	  0.424	 -0.789	  1.588	 -8.806	  0.380	 -0.580	 -0.782	 26.000	 99.277	  0.868
31058	 -0.011	 -0.216	  0.435	 -0.570	  0.279	 -10.895	  0.011	  0.036	 -0.592	 26.000	 99.284	  0.241
31108	 -0.011	 -0.228	  0.425	 -0.202	  0.483	 -10.663	 -0.178	  0.495	 -0.396	 26.000	 99.273	  1.226
31158	 -0.013	 -0.240	  0.427	  0.405	  0.382	 -9.476	 -0.632	 -0.008	 -0.519	 26.000	 99.284	  0.241
31208	 -0.001	 -0.259	  0.417	  0.818	  1.328	 -9.762	 -0.520	 -0.205	 -0.399	 26.100	 99.277	  0.868
31258	  0.017	 -0.263	  0.420	  0.381	  0.539	 -9.036	  0.011	 -0.850	 -0.189	 26.100	 99.288	 -0.118
31308	  0.034	 -0.260	  0.415	 -0.562	  1.447	 -8.954	  0.431	 -0.511	  0.274	 26.100	 99.288	 -0.118
31358	  0.044	 -0.249	  0.420	 -0.755	  0.511	 -9.644	  0.314	  0.157	  0.112	 26.100	 99.288	 -0.118
31408	  0.036	 -0.242	  0.423	 -0.268	  0.864	 -9.751	  0.057	  0.522	 -0.174	 26.000	 99.288	 -0.118
31458	  0.024	 -0.246	  0.425	  0.146	  1.363	 -9.364	 -0.048	  0.395	 -0.117	 26.100	 99.288	 -0.118
31508	  0.019	 -0.252	  0.428	  0.081	  1.088	 -9.439	  0.056	  0.241	 -0.334	 26.100	 99.288	 -0.118
31558	  0.021	 -0.245	  0.421	  0.060	  0.662	 -9.686	  0.001	  0.126	 -0.383	 26.100	 99.299	 -1.102
31608	  0.019	 -0.250	  0.430	  0.263	  0.334	 -9.348	 -0.194	  0.264	 -0.169	 26.100	 99.288	 -0.118
31658	  0.014	 -0.245	  0.429	  0.003	  0.344	 -8.902	 -0.186	  0.294	 -0.180	 26.100	 99.277	  0.868
31708	  0.014	 -0.257	  0.434	  0.801	  0.608	 -9.508	 -0.037	  0.214	 -0.210	 26.000	 99.277	  0.868
31758	  0.007	 -0.260	  0.426	  0.962	  0.504	 -10.179	 -0.385	  0.058	 -0.202	 26.100	 99.277	  0.868
31808	  0.013	 -0.275	  0.423	  1.213	  1.319	 -10.000	 -0.781	 -0.165	 -0.285	 26.100	 99.288	 -0.118
31858	  0.026	 -0.289	  0.418	  0.443	  1.701	 -9.941	 -0.052	 -0.334	 -0.054	 26.100	 99.288	 -0.118
31908	  0.031	 -0.295	  0.421	  0.055	  1.262	 -9.720	 -0.085	  0.024	 -0.207	 26.100	 99.288	 -0.118
31958	  0.038	 -0.291	  0.418	  0.530	  1.505	 -9.750	 -0.133	  0.094	 -0.218	 26.100	 99.277	  0.868
32008	  0.040	 -0.297	  0.421	  0.433	  1.464	 -9.564	 -0.000	 -0.094	 -0.111	 26.100	 99.281	  0.510
32058	  0.049	 -0.298	  0.425	  0.086	  1.040	 -9.300	  0.262	 -0.168	 -0.098	 26.100	 99.277	  0.868
32108	  0.056	 -0.295	  0.430	 -0.217	  1.022	 -9.442	  0.109	 -0.129	 -0.065	 26.100	 99.277	  0.868
32158	  0.058	 -0.288	  0.432	  0.299	  0.748	 -9.629	  0.119	 -0.022	 -0.048	 26.100	 99.277	  0.868
32208	  0.062	 -0.291	  0.428	  0.376	  1.254	 -9.558	  0.183	 -0.130	  0.145	 26.100	 99.288	 -0.118
32258	  0.062	 -0.287	  0.432	  0.022	  0.973	 -9.605	  0.028	 -0.104	  0.277	 26.100	 99.277	  0.868
32308	  0.063	 -0.299	  0.427	  0.179	  1.832	 -9.576	 -0.266	 -0.109	  0.335	 26.100	 99.288	 -0.118
32358	  0.064	 -0.302	  0.429	 -0.080	  1.487	 -9.529	 -0.044	 -0.147	  0.603	 26.100	 99.288	 -0.118
32408	  0.061	 -0.309	  0.427	 -0.153	  1.425	 -9.176	 -0.096	 -0.160	  0.629	 26.100	 99.277	  0.868
32458	  0.057	 -0.321	  0.422	  0.072	  1.380	 -9.188	 -0.335	 -0.136	  0.706	 26.100	 99.281	  0.510
32508	  0.053	 -0.330	  0.418	 -0.164	  1.619	 -9.709	 -0.333	 -0.276	  0.782	 26.100	 99.277	  0.868
32558	  0.051	 -0.342	  0.420	 -0.138	  1.504	 -9.489	 -0.111	 -0.326	  0.705	 26.100	 99.277	  0.868
32608	  0.049	 -0.340	  0.419	 -0.208	  1.569	 -10.540	  0.082	 -0.252	  0.838	 26.100	 99.288	 -0.118
32658	  0.042	 -0.342	  0.416	  0.304	  1.525	 -10.569	  0.155	 -0.312	  0.751	 26.100	 99.281	  0.510
32708	  0.046	 -0.347	  0.412	  0.507	  1.603	 -10.373	  0.017	 -0.445	  0.741	 26.100	 99.277	  0.868
32758	  0.051	 -0.349	  0.411	 -0.009	  1.321	 -10.015	  0.379	 -0.530	  0.805	 26.100	 99.277	  0.868
32808	  0.054	 -0.342	  0.409	 -0.315	  0.769	 -9.722	  0.431	 -0.395	  0.743	 26.100	 99.277	  0.868
32858	  0.048	 -0.327	  0.406	 -0.713	  0.435	 -9.559	  0.521	 -0.204	  0.938	 26.100	 99.281	  0.510
32908	  0.038	 -0.323	  0.405	 -0.664	 -0.270	 -9.301	  0.280	  0.009	  0.806	 26.100	 99.266	  1.853
32958	  0.029	 -0.315	  0.400	 -0.471	 -0.240	 -9.534	  0.001	 -0.097	  0.793	 26.100	 99.281	  0.510
33008	  0.018	 -0.310	  0.386	 -0.610	 -0.207	 -8.986	  0.054	 -0.214	  0.839	 26.100	 99.277	  0.868
33058	  0.009	 -0.298	  0.372	 -0.429	 -0.516	 -9.018	  0.129	 -0.261	  0.953	 26.100	 99.281	  0.510
33108	 -0.006	 -0.279	  0.366	 -0.831	 -0.670	 -9.545	  0.308	 -0.085	  1.456	 26.100	 99.277	  0.868
33158	 -0.025	 -0.258	  0.372	 -0.771	 -0.905	 -9.376	  0.157	 -0.035	  1.459	 26.100	 99.270	  1.495
33208	 -0.043	 -0.236	  0.368	 -0.892	 -1.030	 -9.899	  0.189	  0.016	  1.648	 26.100	 99.281	  0.510
33258	 -0.061	 -0.217	  0.361	 -1.019	 -1.130	 -9.389	  0.195	 -0.190	  1.668	 26.100	 99.281	  0.510
33308	 -0.073	 -0.198	  0.360	 -0.837	 -1.723	 -9.318	  0.240	 -0.121	  1.798	 26.100	 99.270	  1.495
33358	 -0.090	 -0.180	  0.352	 -1.092	 -1.359	 -9.265	  0.256	 -0.135	  1.911	 26.100	 99.281	  0.510
33408	 -0.103	 -0.152	  0.349	 -0.892	 -1.357	 -9.032	  0.617	 -0.133	  2.147	 26.100	 99.281	  0.510
33458	 -0.118	 -0.130	  0.344	 -0.684	 -0.215	 -9.994	  0.430	  0.008	  2.004	 26.100	 99.281	  0.510
33508	 -0.128	 -0.113	  0.339	 -0.145	  2.076	 -9.834	  0.130	 -0.170	  1.427	 26.100	 99.281	  0.510
33558	 -0.127	 -0.100	  0.349	 -0.484	  1.356	 -9.618	 -0.035	 -0.387	  1.239	 26.100	 99.274	  1.136
33608	 -0.121	 -0.086	  0.359	 -1.110	 -1.217	 -9.116	 -0.215	 -0.339	  1.013	 26.100	 99.281	  0.510
33658	 -0.112	 -0.086	  0.363	 -0.556	 -2.098	 -8.712	 -0.045	 -0.482	  0.866	 26.100	 99.281	  0.510
33708	 -0.105	 -0.072	  0.359	 -1.209	 -0.418	 -10.430	 -0.000	  0.005	  1.464	 26.100	 99.285	  0.151
33758	 -0.109	 -0.066	  0.355	 -0.756	  1.500	 -10.215	  0.022	  0.342	  1.057	 26.100	 99.270	  1.495
33808	 -0.112	 -0.054	  0.350	 -1.263	  2.857	 -8.803	  0.446	  0.119	  1.051	 26.100	 99.292	 -0.476
33858	 -0.107	 -0.018	  0.355	 -1.135	 -0.595	 -9.827	  1.209	  0.112	  1.465	 26.100	 99.281	  0.510
33908	 -0.109	  0.003	  0.353	  0.128	 -1.682	 -9.326	  0.229	  0.296	  1.024	 26.100	 99.281	  0.510
33958	 -0.106	  0.005	  0.355	 -0.623	  2.236	 -9.795	 -0.336	 -0.028	  1.139	 26.100	 99.281	  0.510
34008	 -0.096	  0.009	  0.359	 -2.245	  1.360	 -9.054	  0.389	  0.081	  1.448	 26.100	 99.281	  0.510
34059	 -0.094	  0.026	  0.358	 -1.076	 -0.428	 -8.814	  0.207	  0.064	  0.882	 26.100	 99.270	  1.495
34109	 -0.086	  0.023	  0.359	 -0.740	  0.175	 -9.171	 -0.035	 -0.171	  0.909	 26.100	 99.281	  0.510
34160	 -0.078	  0.032	  0.353	 -1.444	  0.102	 -9.376	  0.159	 -0.087	  0.895	 26.100	 99.281	  0.510
34209	 -0.067	  0.040	  0.354	 -1.992	  0.541	 -10.385	  0.172	 -0.020	  0.599	 26.100	 99.281	  0.510
34259	 -0.064	  0.045	  0.354	 -1.434	  0.617	 -10.975	  0.184	  0.113	  0.216	 26.100	 99.274	  1.136
34309	 -0.060	  0.043	  0.349	 -0.577	  0.870	 -10.951	  0.258	 -0.007	  0.027	 26.100	 99.285	  0.151
34359	 -0.058	  0.047	  0.355	 -1.354	  0.585	 -10.730	  0.681	 -0.135	  0.478	 26.100	 99.274	  1.136
34409	 -0.058	  0.062	  0.354	 -0.484	 -0.034	 -10.486	  0.153	  0.118	  0.062	 26.100	 99.281	  0.510
34459	 -0.058	  0.049	  0.358	 -0.647	  0.848	 -10.236	  0.250	 -0.365	 -0.182	 26.100	 99.270	  1.495
34509	 -0.058	  0.049	  0.358	 -0.558	 -1.083	 -9.613	  0.186	  0.154	 -0.514	 26.100	 99.285	  0.151
34559	 -0.068	  0.040	  0.358	  0.352	  0.444	 -10.355	 -0.889	  0.109	 -1.180	 26.100	 99.281	  0.510
34609	 -0.072	  0.006	  0.360	 -0.592	  1.912	 -7.356	 -0.412	 -0.214	 -0.696	 26.100	 99.285	  0.151
34659	 -0.071	 -0.003	  0.360	 -1.403	 -0.528	 -8.223	  0.023	  0.069	 -0.622	 26.100	 99.270	  1.495
34710	 -0.074	 -0.005	  0.358	 -1.039	 -0.484	 -7.893	 -0.126	 -0.100	 -0.976	 26.100	 99.274	  1.136
34760	 -0.075	 -0.031	  0.359	 -0.795	 -1.003	 -8.332	 -0.299	 -0.060	 -0.583	 26.100	 99.285	  0.151
34810	 -0.073	 -0.050	  0.353	 -0.866	 -1.709	 -9.155	 -0.413	 -0.018	 -0.483	 26.100	 99.285	  0.151
34860	 -0.072	 -0.067	  0.347	 -0.901	 -1.010	 -9.721	 -0.546	 -0.192	 -0.134	 26.100	 99.274	  1.136
34910	 -0.068	 -0.081	  0.341	 -1.556	 -1.184	 -10.522	 -0.475	 -0.082	  0.198	 26.100	 99.274	  1.136
34960	 -0.070	 -0.094	  0.340	 -0.350	 -0.330	 -10.881	 -0.627	 -0.075	 -0.087	 26.100	 99.285	  0.151
35010	 -0.063	 -0.111	  0.332	 -1.034	  1.386	 -11.025	 -0.259	 -0.246	  0.607	 26.100	 99.285	  0.151
35060	 -0.064	 -0.110	  0.333	 -0.969	 -0.034	 -11.500	 -0.091	  0.045	  0.451	 26.100	 99.274	  1.136
35110	 -0.066	 -0.112	  0.334	 -0.470	  0.800	 -9.973	  0.172	 -0.183	  0.706	 26.100	 99.285	  0.151
35160	 -0.070	 -0.112	  0.328	 -0.570	  0.266	 -9.942	 -0.329	  0.222	  0.847	 26.100	 99.274	  1.136
35210	 -0.073	 -0.121	  0.325	  0.043	  1.121	 -9.592	 -0.288	 -0.205	  0.372	 26.100	 99.274	  1.136
35260	 -0.075	 -0.114	  0.327	 -0.418	  1.299	 -9.017	  0.036	 -0.062	  0.667	 26.100	 99.285	  0.151
35310	 -0.072	 -0.112	  0.331	 -1.093	  0.944	 -7.684	  0.739	 -0.229	  0.799	 26.100	 99.285	  0.151
35360	 -0.078	 -0.087	  0.332	 -0.828	 -0.075	 -8.142	  0.899	  0.316	  1.050	 26.100	 99.285	  0.151
35410	 -0.083	 -0.073	  0.333	 -0.009	 -0.198	 -8.403	  0.582	  0.218	  0.893	 26.100	 99.285	  0.151
35460	 -0.087	 -0.059	  0.324	  0.205	 -0.177	 -9.434	  0.254	 -0.012	  1.178	 26.100	 99.285	  0.151
35510	 -0.082	 -0.040	  0.329	 -0.115	 -0.533	 -10.030	  0.162	 -0.370	  1.434	 26.100	 99.274	  1.136
35560	 -0.073	 -0.040	  0.330	  0.531	 -0.698	 -10.628	 -0.233	 -0.498	  1.106	 26.100	 99.278	  0.778
35610	 -0.058	 -0.032	  0.334	 -0.731	 -0.902	 -11.335	  0.426	 -0.462	  1.725	 26.100	 99.285	  0.151
35660	 -0.059	 -0.027	  0.331	  0.091	 -1.096	 -10.444	 -0.171	  0.106	  1.254	 26.100	 99.285	  0.151
35710	 -0.056	 -0.026	  0.333	  0.162	 -0.875	 -11.209	 -0.481	  0.368	  1.135	 26.100	 99.290	 -0.297
35760	 -0.065	 -0.034	  0.330	  0.387	 -0.160	 -9.991	 -0.340	  0.387	  0.817	 26.100	 99.285	  0.151
35810	 -0.065	 -0.038	  0.330	  0.506	  0.265	 -7.886	  0.273	  0.074	  1.100	 26.100	 99.285	  0.151
35860	 -0.065	 -0.012	  0.331	 -0.422	 -1.078	 -7.807	  0.868	  0.173	  1.700	 26.100	 99.285	  0.151
35911	 -0.066	  0.010	  0.331	 -0.426	 -2.212	 -8.605	  0.297	  0.395	  1.268	 26.100	 99.285	  0.151
35960	 -0.068	  0.005	  0.325	  0.020	 -1.945	 -9.076	  0.023	  0.072	  0.739	 26.100	 99.290	 -0.297
36010	 -0.067	  0.002	  0.327	  0.278	 -2.248	 -10.056	 -0.344	  0.106	  0.475	 26.100	 99.278	  0.778
36060	 -0.068	 -0.017	  0.331	  0.236	 -0.879	 -10.180	 -0.666	  0.005	  0.315	 26.100	 99.285	  0.151
36110	 -0.064	 -0.028	  0.331	 -0.298	 -0.061	 -9.832	  0.023	 -0.053	  0.637	 26.100	 99.278	  0.778
36160	 -0.069	 -0.019	  0.333	 -0.744	 -0.621	 -9.990	  0.421	  0.154	  0.807	 26.100	 99.278	  0.778
36210	 -0.073	 -0.008	  0.331	 -0.748	 -0.647	 -9.546	  0.627	  0.012	  1.002	 26.100	 99.278	  0.778
36260	 -0.074	  0.009	  0.335	 -0.418	 -1.777	 -11.288	  0.532	  0.149	  0.975	 26.100	 99.278	  0.778
36310	 -0.082	  0.011	  0.340	  1.186	 -0.994	 -11.439	 -0.021	 -0.159	  0.413	 26.100	 99.278	  0.778
36360	 -0.083	  0.011	  0.345	  1.099	  0.179	 -11.436	 -0.492	 -0.276	  0.980	 26.100	 99.274	  1.136
36410	 -0.078	  0.018	  0.359	  0.560	  0.583	 -10.712	 -0.391	 -0.410	  0.778	 26.100	 99.290	 -0.297
36460	 -0.071	  0.016	  0.366	  0.880	  0.939	 -9.656	 -0.057	 -0.293	  0.611	 26.100	 99.290	 -0.297
36510	 -0.065	  0.028	  0.371	  0.743	  0.444	 -8.412	  0.464	 -0.277	  1.089	 26.100	 99.278	  0.778
36560	 -0.053	  0.062	  0.377	 -0.052	 -0.675	 -8.057	  0.473	  0.046	  1.454	 26.100	 99.267	  1.763
36610	 -0.049	  0.074	  0.373	  0.233	 -1.239	 -8.191	  0.171	  0.083	  1.223	 26.100	 99.278	  0.778
36660	 -0.040	  0.079	  0.377	  0.492	 -0.971	 -8.734	 -0.136	 -0.035	  1.267	 26.100	 99.278	  0.778
36710	 -0.023	  0.086	  0.381	  0.018	 -0.642	 -9.433	 -0.319	 -0.291	  1.423	 26.100	 99.278	  0.778
36760	 -0.006	  0.088	  0.380	 -0.476	 -0.848	 -9.804	 -0.203	 -0.145	  1.238	 26.100	 99.290	 -0.297
36810	  0.008	  0.094	  0.379	 -0.241	 -0.278	 -9.928	 -0.010	 -0.159	  1.149	 26.100	 99.290	 -0.297
36860	  0.024	  0.098	  0.372	 -0.136	 -0.272	 -10.128	  0.445	 -0.250	  1.317	 26.100	 99.278	  0.778
36910	  0.050	  0.109	  0.369	 -0.492	 -0.415	 -9.939	  0.651	 -0.591	  1.476	 26.100	 99.290	 -0.297
36960	  0.075	  0.120	  0.354	 -0.743	 -1.363	 -12.226	  0.340	 -0.218	  1.431	 26.100	 99.278	  0.778
37010	  0.084	  0.106	  0.348	  0.386	  0.429	 -10.010	 -0.380	 -0.458	  0.472	 26.100	 99.278	  0.778
37060	  0.092	  0.104	  0.347	  0.178	 -0.699	 -10.669	  0.224	  0.384	  1.295	 26.100	 99.278	  0.778
37110	  0.092	  0.112	  0.345	  0.342	 -0.840	 -9.443	  0.437	  0.541	  1.469	 26.100	 99.278	  0.778
37161	  0.090	  0.104	  0.342	  0.912	  0.442	 -8.582	 -0.207	  0.314	  1.538	 26.100	 99.278	  0.778
37211	  0.102	  0.093	  0.342	 -0.086	  0.603	 -8.424	  0.205	 -0.225	  1.572	 26.100	 99.278	  0.778
37261	  0.110	  0.089	  0.334	  0.049	 -0.408	 -7.631	  0.277	 -0.003	  0.887	 26.100	 99.278	  0.778
37311	  0.111	  0.086	  0.330	  0.288	 -0.268	 -8.099	 -0.043	 -0.079	  0.098	 26.100	 99.283	  0.331
37361	  0.114	  0.081	  0.329	  0.255	  0.172	 -9.060	 -0.214	  0.197	 -0.075	 26.100	 99.290	 -0.297
37411	  0.104	  0.086	  0.332	 -0.104	  0.713	 -9.505	  0.219	  0.271	 -0.049	 26.100	 99.290	 -0.297
37461	  0.098	  0.091	  0.331	 -0.214	  0.285	 -9.954	  0.432	  0.210	 -0.125	 26.100	 99.290	 -0.297
37511	  0.093	  0.104	  0.329	 -0.551	  0.438	 -10.285	  0.333	  0.036	 -0.190	 26.100	 99.278	  0.778
37561	  0.093	  0.110	  0.326	 -0.900	  0.043	 -11.561	  0.308	  0.050	 -0.338	 26.100	 99.267	  1.763
37611	  0.079	  0.113	  0.325	  0.439	  0.018	 -12.128	 -0.400	  0.263	 -1.277	 26.100	 99.278	  0.778
37661	  0.069	  0.101	  0.331	  0.705	  2.591	 -11.373	 -0.432	 -0.096	 -0.798	 26.100	 99.278	  0.778
37711	  0.072	  0.105	  0.329	 -0.492	  2.449	 -10.460	  0.496	 -0.269	 -0.314	 26.100	 99.283	  0.331
37761	  0.071	  0.119	  0.330	 -0.837	  1.988	 -9.299	  0.645	 -0.077	 -0.780	 26.100	 99.283	  0.331
37811	  0.061	  0.138	  0.329	 -0.520	  1.377	 -8.223	  0.433	 -0.018	 -1.059	 26.100	 99.271	  1.405
37861	  0.055	  0.143	  0.326	 -0.729	  0.426	 -7.872	  0.201	 -0.181	 -1.053	 26.100	 99.294	 -0.655
37911	  0.047	  0.150	  0.325	 -0.828	 -0.182	 -7.967	 -0.096	 -0.359	 -1.260	 26.100	 99.283	  0.331
37961	  0.044	  0.145	  0.329	 -1.048	 -0.648	 -8.536	 -0.444	 -0.372	 -1.321	 26.100	 99.283	  0.331
38011	  0.041	  0.133	  0.327	 -1.632	 -0.367	 -9.178	 -0.630	 -0.315	 -1.052	 26.100	 99.278	  0.778
38061	  0.034	  0.128	  0.342	 -2.049	 -0.449	 -9.706	 -0.660	 -0.159	 -0.942	 26.100	 99.283	  0.331
38111	  0.032	  0.111	  0.350	 -1.548	 -0.490	 -10.211	 -0.517	 -0.224	 -0.883	 26.100	 99.290	 -0.297
38161	  0.032	  0.108	  0.350	 -0.913	 -0.698	 -11.202	 -0.265	 -0.287	 -0.596	 26.100	 99.294	 -0.655
38211	  0.036	  0.093	  0.359	  0.152	  0.241	 -10.142	 -0.765	 -0.603	 -0.779	 26.100	 99.283	  0.331
38261	  0.049	  0.083	  0.366	 -1.125	 -0.126	 -11.622	 -0.244	 -0.284	 -0.079	 26.100	 99.283	  0.331
38311	  0.054	  0.075	  0.367	 -0.302	  0.125	 -9.999	 -0.263	 -0.348	 -0.763	 26.100	 99.283	  0.331
38361	  0.059	  0.072	  0.379	 -0.175	  0.899	 -10.473	 -0.210	  0.131	 -0.046	 26.100	 99.283	  0.331
38411	  0.062	  0.064	  0.388	 -0.573	  1.093	 -10.027	 -0.251	  0.030	 -0.015	 26.100	 99.283	  0.331
38461	  0.069	  0.059	  0.389	 -0.984	  1.492	 -9.141	 -0.005	 -0.072	 -0.076	 26.100	 99.283	  0.331
38511	  0.076	  0.066	  0.394	 -1.533	  0.959	 -8.725	  0.194	 -0.048	 -0.039	 26.100	 99.283	  0.331
38561	  0.080	  0.075	  0.397	 -1.828	  0.432	 -8.993	  0.019	  0.058	 -0.219	 26.100	 99.283	  0.331
38611	  0.084	  0.067	  0.401	 -1.481	  0.914	 -9.172	 -0.164	 -0.169	 -0.393	 26.100	 99.283	  0.331
38661	  0.097	  0.063	  0.406	 -1.452	  1.048	 -9.272	 -0.069	 -0.332	 -0.347	 26.100	 99.271	  1.405
38711	  0.108	  0.065	  0.401	 -1.884	  0.945	 -8.890	  0.054	 -0.352	 -0.418	 26.100	 99.271	  1.405
38761	  0.115	  0.069	  0.401	 -1.991	  0.614	 -8.695	  0.103	  0.073	 -0.445	 26.100	 99.283	  0.331
38811	  0.116	  0.077	  0.410	 -1.657	  1.167	 -8.929	  0.028	  0.150	 -0.170	 26.100	 99.287	 -0.028
38861	  0.116	  0.077	  0.420	 -1.475	  1.067	 -9.239	 -0.052	  0.220	 -0.031	 26.100	 99.283	  0.331
38911	  0.121	  0.070	  0.417	 -1.281	  1.839	 -9.285	 -0.303	 -0.000	 -0.133	 26.100	 99.287	 -0.028
38961	  0.124	  0.064	  0.425	 -1.712	  2.049	 -9.110	 -0.262	 -0.033	 -0.163	 26.100	 99.283	  0.331
39011	  0.124	  0.072	  0.432	 -1.483	  1.718	 -9.405	 -0.190	  0.139	 -0.440	 26.100	 99.283	  0.331
39061	  0.121	  0.055	  0.435	 -1.401	  2.030	 -9.434	 -0.048	  0.195	 -0.305	 26.100	 99.283	  0.331
39111	  0.114	  0.059	  0.438	 -1.795	  1.437	 -9.519	  0.082	  0.258	 -0.253	 26.100	 99.271	  1.405
39161	  0.109	  0.065	  0.441	 -1.576	  1.417	 -9.768	 -0.047	  0.226	 -0.462	 26.100	 99.283	  0.331
39211	  0.098	  0.065	  0.437	 -1.572	  1.599	 -9.529	 -0.022	  0.124	 -0.380	 26.100	 99.283	  0.331
39261	  0.093	  0.061	  0.443	 -1.929	  1.476	 -9.369	  0.093	  0.136	 -0.346	 26.100	 99.283	  0.331
39311	  0.089	  0.073	  0.444	 -1.698	  1.057	 -9.460	  0.084	  0.241	 -0.393	 26.100	 99.283	  0.331
39361	  0.082	  0.072	  0.441	 -1.464	  1.322	 -9.436	 -0.074	  0.170	 -0.429	 26.100	 99.271	  1.405
39411	  0.073	  0.084	  0.441	 -1.512	  1.363	 -9.330	  0.163	  0.072	 -0.325	 26.100	 99.287	 -0.028
39461	  0.066	  0.083	  0.435	 -1.441	  1.041	 -9.194	  0.146	  0.126	 -0.317	 26.100	 99.283	  0.331
39511	  0.063	  0.094	  0.434	 -1.725	  1.277	 -9.239	  0.191	  0.095	 -0.221	 26.100	 99.287	 -0.028
39561	  0.051	  0.100	  0.430	 -1.631	  0.887	 -9.187	  0.257	  0.118	 -0.286	 26.100	 99.283	  0.331
39611	  0.047	  0.094	  0.430	 -1.363	  1.055	 -9.366	  0.100	  0.045	 -0.307	 26.200	 99.287	 -0.028
39661	  0.039	  0.098	  0.430	 -1.353	  1.113	 -9.551	  0.099	 -0.037	 -0.267	 26.100	 99.287	 -0.028
39711	  0.037	  0.100	  0.425	 -1.337	  0.960	 -9.699	  0.105	  0.074	 -0.362	 26.100	 99.271	  1.405
39761	  0.025	  0.106	  0.419	 -1.366	  1.032	 -9.352	  0.277	  0.031	 -0.291	 26.100	 99.287	 -0.028
39811	  0.018	  0.114	  0.415	 -1.908	 -0.072	 -9.613	  0.371	  0.261	 -0.042	 26.100	 99.276	  0.957
39861	 -0.002	  0.111	  0.402	 -1.065	 -0.459	 -10.226	 -0.124	  0.306	 -0.397	 26.100	 99.276	  0.957
39911	 -0.004	  0.109	  0.406	 -1.135	  0.271	 -9.874	  0.063	 -0.068	  0.044	 26.100	 99.276	  0.957
39961	 -0.004	  0.115	  0.404	 -1.646	 -0.826	 -9.826	 -0.064	 -0.144	  0.026	 26.100	 99.276	  0.957
40012	 -0.009	  0.107	  0.396	 -1.043	 -0.594	 -10.065	 -0.503	 -0.228	 -0.631	 26.100	 99.276	  0.957
40061	 -0.005	  0.095	  0.401	 -0.562	 -0.105	 -9.691	 -0.390	 -0.323	 -0.546	 26.200	 99.276	  0.957
40112	 -0.007	  0.091	  0.400	 -0.862	 -0.690	 -9.370	 -0.197	 -0.249	 -0.539	 26.200	 99.287	 -0.028
40161	 -0.008	  0.088	  0.396	 -1.069	 -0.893	 -9.057	  0.040	 -0.029	 -0.561	 26.100	 99.271	  1.405
40211	 -0.018	  0.096	  0.390	 -1.110	 -1.318	 -8.999	  0.202	  0.087	 -0.435	 26.100	 99.276	  0.957
40261	 -0.025	  0.091	  0.386	 -1.288	 -1.873	 -9.261	  0.191	  0.108	 -0.413	 26.200	 99.276	  0.957
40311	 -0.032	  0.091	  0.382	 -1.196	 -1.835	 -9.246	  0.081	  0.046	 -0.401	 26.100	 99.276	  0.957
40361	 -0.036	  0.089	  0.382	 -1.348	 -1.573	 -9.423	  0.085	  0.037	 -0.282	 26.100	 99.276	  0.957
40412	 -0.039	  0.097	  0.384	 -1.351	 -1.357	 -9.712	  0.046	  0.114	 -0.307	 26.100	 99.287	 -0.028
40462	 -0.045	  0.101	  0.387	 -1.270	 -0.882	 -9.551	  0.087	  0.163	 -0.308	 26.100	 99.287	 -0.028
40512	 -0.054	  0.095	  0.383	 -1.099	 -1.089	 -9.473	  0.146	  0.286	 -0.391	 26.200	 99.287	 -0.028
40562	 -0.064	  0.096	  0.378	 -0.866	 -0.730	 -9.357	  0.096	  0.290	 -0.336	 26.200	 99.291	 -0.386
40612	 -0.073	  0.088	  0.380	 -0.721	 -1.157	 -9.578	 -0.084	  0.391	 -0.466	 26.200	 99.269	  1.585
40662	 -0.088	  0.083	  0.377	 -0.247	 -0.363	 -10.056	 -0.227	  0.359	 -0.602	 26.200	 99.287	 -0.028
40712	 -0.095	  0.081	  0.375	 -0.355	 -0.386	 -9.934	 -0.063	  0.352	 -0.403	 26.100	 99.287	 -0.028
40762	 -0.108	  0.086	  0.375	 -0.280	 -0.729	 -9.582	  0.175	  0.374	 -0.350	 26.200	 99.291	 -0.386
40812	 -0.118	  0.081	  0.373	  0.266	 -1.238	 -9.931	  0.190	  0.439	 -0.302	 26.100	 99.276	  0.957
40862	 -0.131	  0.079	  0.368	  0.790	 -0.980	 -9.906	 -0.060	  0.301	 -0.130	 26.100	 99.287	 -0.028
40912	 -0.132	  0.080	  0.370	  0.776	 -0.719	 -9.888	 -0.069	 -0.060	  0.070	 26.100	 99.276	  0.957
40962	 -0.130	  0.078	  0.375	  0.301	 -0.825	 -9.432	 -0.002	 -0.116	  0.251	 26.200	 99.276	  0.957
41012	 -0.124	  0.080	  0.374	  0.074	 -0.718	 -9.441	 -0.038	 -0.022	  0.292	 26.200	 99.291	 -0.386
41062	 -0.124	  0.088	  0.376	 -0.106	 -0.471	 -9.671	  0.040	  0.075	  0.346	 26.100	 99.276	  0.957
41112	 -0.126	  0.087	  0.375	  0.005	 -0.465	 -9.710	  0.085	  0.061	  0.153	 26.200	 99.280	  0.599
41162	 -0.126	  0.089	  0.376	  0.282	 -0.393	 -9.695	  0.062	  0.016	  0.113	 26.200	 99.280	  0.599
41212	 -0.123	  0.091	  0.373	  0.249	 -0.381	 -9.702	  0.060	 -0.006	  0.141	 26.100	 99.276	  0.957
41262	 -0.122	  0.091	  0.373	  0.146	 -0.470	 -9.493	  0.101	 -0.030	  0.131	 26.100	 99.276	  0.957
41312	 -0.122	  0.105	  0.369	  0.074	 -0.717	 -9.380	  0.099	 -0.004	  0.106	 26.200	 99.280	  0.599
41362	 -0.119	  0.103	  0.371	 -0.099	 -0.965	 -9.351	  0.015	  0.047	  0.101	 26.200	 99.291	 -0.386
41412	 -0.126	  0.099	  0.368	  0.007	 -1.260	 -9.273	 -0.050	  0.098	 -0.035	 26.200	 99.291	 -0.386
41462	 -0.125	  0.096	  0.370	  0.076	 -1.236	 -9.679	 -0.133	  0.133	  0.005	 26.200	 99.280	  0.599
41512	 -0.130	  0.091	  0.369	  0.189	 -1.131	 -9.875	 -0.166	  0.073	 -0.035	 26.200	 99.291	 -0.386
41562	 -0.131	  0.086	  0.367	  0.334	 -1.188	 -9.839	 -0.037	  0.083	  0.118	 26.200	 99.280	  0.599
41612	 -0.131	  0.096	  0.371	  0.263	 -1.309	 -10.041	  0.013	  0.066	  0.237	 26.200	 99.280	  0.599
41662	 -0.130	  0.091	  0.371	  0.537	 -1.221	 -9.884	 -0.043	  0.001	  0.272	 26.200	 99.280	  0.599
41712	 -0.126	  0.098	  0.371	  0.606	 -1.039	 -9.915	 -0.087	 -0.091	  0.399	 26.200	 99.280	  0.599
41762	 -0.120	  0.098	  0.371	  0.312	 -0.917	 -9.679	 -0.074	 -0.119	  0.441	 26.200	 99.280	  0.599
41812	 -0.115	  0.096	  0.368	  0.338	 -1.247	 -9.425	 -0.101	 -0.017	  0.551	 26.200	 99.280	  0.599
41862	 -0.112	  0.101	  0.376	  0.198	 -1.094	 -9.478	  0.039	  0.066	  0.744	 26.200	 99.280	  0.599
41912	 -0.107	  0.108	  0.377	  0.897	 -2.561	 -10.124	  0.166	  0.176	  0.832	 26.200	 99.287	 -0.028
41962	 -0.103	  0.120	  0.374	  0.787	 -2.343	 -10.799	  0.162	  0.299	  0.925	 26.200	 99.280	  0.599
42012	 -0.095	  0.138	  0.376	  0.896	 -2.095	 -11.140	  0.244	  0.115	  1.251	 26.200	 99.280	  0.599
42062	 -0.074	  0.160	  0.374	  1.223	 -2.839	 -9.946	  0.573	 -0.266	  1.837	 26.200	 99.291	 -0.386
42112	 -0.046	  0.176	  0.367	  0.871	 -3.051	 -8.713	  0.560	 -0.224	  2.191	 26.200	 99.284	  0.241
42162	 -0.008	  0.180	  0.376	  0.447	 -2.502	 -8.806	 -0.252	 -0.343	  2.012	 26.200	 99.291	 -0.386
42212	  0.028	  0.180	  0.383	  0.158	 -1.626	 -8.639	  0.140	 -0.302	  2.259	 26.200	 99.280	  0.599
42262	  0.065	  0.183	  0.381	 -0.459	 -1.381	 -8.347	  0.237	 -0.008	  2.430	 26.200	 99.280	  0.599
42312	  0.087	  0.174	  0.375	 -0.747	 -1.081	 -8.096	  0.353	  0.355	  2.185	 26.200	 99.273	  1.226
42362	  0.102	  0.175	  0.383	 -0.658	 -0.860	 -8.182	  0.286	  0.736	  2.145	 26.200	 99.280	  0.599
42412	  0.106	  0.164	  0.393	  0.331	 -1.515	 -8.687	 -0.335	  0.815	  1.855	 26.200	 99.280	  0.599
42462	  0.108	  0.138	  0.403	  0.276	 -0.242	 -8.659	 -0.606	  0.644	  1.915	 26.200	 99.284	  0.241
42512	  0.100	  0.104	  0.420	 -0.006	 -0.745	 -9.144	 -0.723	  0.753	  1.937	 26.200	 99.280	  0.599
42562	  0.094	  0.081	  0.433	  0.727	 -0.240	 -10.317	 -0.649	  0.391	  1.313	 26.200	 99.280	  0.599
42612	  0.090	  0.054	  0.440	  0.640	  0.489	 -10.330	 -0.732	  0.124	  1.477	 26.200	 99.280	  0.599
42662	  0.098	  0.039	  0.447	  0.995	  0.205	 -10.856	 -0.415	 -0.146	  0.995	 26.200	 99.280	  0.599
42712	  0.104	  0.017	  0.444	  1.482	  1.154	 -9.702	 -0.369	 -0.538	  0.581	 26.200	 99.280	  0.599
42762	  0.119	  0.008	  0.444	  0.707	  1.122	 -9.116	 -0.010	 -0.519	  0.993	 26.200	 99.284	  0.241
42812	  0.128	  0.007	  0.444	  0.421	  0.482	 -9.875	  0.305	 -0.159	  0.938	 26.200	 99.284	  0.241
42862	  0.127	  0.012	  0.445	  0.748	  1.009	 -10.111	  0.308	  0.023	  0.933	 26.200	 99.280	  0.599
42912	  0.122	  0.015	  0.447	  0.317	  0.482	 -9.758	  0.361	  0.217	  1.234	 26.200	 99.284	  0.241
42962	  0.115	  0.016	  0.447	  1.085	  0.385	 -9.892	  0.005	  0.392	  1.216	 26.200	 99.269	  1.585
43013	  0.111	  0.011	  0.445	  1.306	  1.322	 -9.746	  0.128	 -0.036	  1.166	 26.200	 99.284	  0.241
43063	  0.119	  0.012	  0.436	  0.373	  1.005	 -9.147	  0.022	 -0.158	  0.988	 26.200	 99.284	  0.241
43113	  0.115	  0.011	  0.439	  0.154	  1.341	 -9.839	  0.143	  0.050	  0.833	 26.200	 99.284	  0.241
43163	  0.116	  0.008	  0.441	  0.487	  0.521	 -9.289	  0.139	  0.192	  0.923	 26.200	 99.269	  1.585
43213	  0.107	  0.007	  0.440	  0.352	  0.106	 -9.897	 -0.121	  0.409	  0.657	 26.200	 99.284	  0.241
43263	  0.097	 -0.001	  0.439	  0.845	  0.228	 -9.990	 -0.184	  0.239	  0.237	 26.200	 99.273	  1.226
43313	  0.097	  0.007	  0.447	  0.539	  0.015	 -9.409	  0.160	 -0.089	  0.230	 26.200	 99.284	  0.241
43363	  0.098	  0.002	  0.439	 -0.075	 -0.007	 -9.765	 -0.016	  0.203	  0.086	 26.200	 99.284	  0.241
43413	  0.098	  0.001	  0.444	  0.901	  0.041	 -10.189	  0.158	 -0.212	  0.040	 26.200	 99.295	 -0.744
43463	  0.109	  0.005	  0.438	 -0.591	  0.623	 -10.820	 -0.394	 -0.215	  0.315	 26.200	 99.295	 -0.744
43513	  0.110	 -0.007	  0.438	  0.484	  0.031	 -9.991	 -0.388	 -0.251	 -0.483	 26.200	 99.273	  1.226
43563	  0.127	 -0.018	  0.434	 -1.958	 -2.735	 -10.685	  0.354	 -0.444	 -0.237	 26.200	 99.284	  0.241
43613	  0.131	  0.001	  0.436	 -0.304	 -0.335	 -8.851	  0.485	 -0.059	  0.037	 26.200	 99.284	  0.241
43663	  0.132	 -0.002	  0.435	 -0.414	 -0.018	 -9.898	 -0.036	  0.324	 -0.117	 26.200	 99.284	  0.241
43713	  0.125	 -0.001	  0.438	 -0.452	 -0.257	 -9.332	  0.276	  0.240	 -0.087	 26.200	 99.284	  0.241
43763	  0.120	  0.008	  0.439	 -0.369	 -0.091	 -9.068	  0.252	  0.202	 -0.019	 26.200	 99.284	  0.241
43813	  0.115	  0.024	  0.443	  0.206	 -0.896	 -10.719	  0.495	  0.162	  0.094	 26.200	 99.273	  1.226
43863	  0.113	  0.020	  0.440	  0.266	 -1.464	 -10.329	  0.176	 -0.056	  0.300	 26.200	 99.284	  0.241
43913	  0.128	  0.027	  0.438	  1.049	 -1.372	 -10.778	  0.253	 -0.832	  0.135	 26.200	 99.273	  1.226
43963	  0.162	  0.024	  0.431	  0.299	 -1.963	 -10.517	  0.076	 -1.560	 -0.942	 26.200	 99.284	  0.241
44013	  0.196	  0.023	  0.418	 -0.547	 -0.593	 -10.534	 -0.055	 -0.833	 -0.342	 26.200	 99.284	  0.241
44063	  0.221	  0.031	  0.408	 -1.397	 -0.931	 -9.883	  0.192	 -0.677	 -0.229	 26.200	 99.273	  1.226
44113	  0.239	  0.024	  0.386	 -0.756	 -1.560	 -10.133	  0.210	 -0.397	  0.084	 26.200	 99.273	  1.226
44163	  0.247	  0.016	  0.384	 -2.014	 -1.461	 -8.313	 -0.273	 -0.400	 -0.010	 26.200	 99.284	  0.241
44213	  0.259	  0.015	  0.380	 -2.993	 -1.535	 -6.373	 -0.454	 -0.173	 -0.343	 26.200	 99.288	 -0.118
44263	  0.255	  0.001	  0.382	 -3.340	 -1.044	 -4.730	 -0.448	  0.263	 -0.450	 26.200	 99.273	  1.226
44313	  0.243	 -0.003	  0.388	 -3.192	 -0.503	 -5.896	 -0.247	  0.813	 -0.383	 26.200	 99.273	  1.226
44363	  0.212	  0.009	  0.414	 -0.224	 -0.213	 -10.167	  0.418	  1.276	 -0.363	 26.200	 99.284	  0.241
44413	  0.185	  0.022	  0.423	  1.474	 -0.253	 -13.250	  0.129	  0.941	 -0.250	 26.200	 99.273	  1.226
44463	  0.171	  0.031	  0.427	  0.632	 -1.626	 -12.295	  0.308	 -0.161	 -0.276	 26.200	 99.284	  0.241
44513	  0.190	  0.031	  0.418	 -2.185	 -1.892	 -7.555	 -0.182	 -0.854	 -0.406	 26.200	 99.273	  1.226
44563	  0.193	  0.029	  0.418	 -3.561	 -0.508	 -4.873	 -0.436	  0.325	 -0.265	 26.200	 99.288	 -0.118
44613	  0.169	  0.026	  0.428	 -0.589	 -0.262	 -7.910	 -0.124	  1.123	 -0.196	 26.200	 99.284	  0.241
44663	  0.137	  0.025	  0.440	  2.620	 -0.315	 -13.345	  0.153	  0.738	 -0.279	 26.200	 99.277	  0.868
44713	  0.133	  0.043	  0.446	  1.911	 -0.753	 -13.575	  0.131	 -0.414	 -0.336	 26.200	 99.273	  1.226
44763	  0.147	  0.040	  0.436	 -0.640	 -0.583	 -9.082	 -0.291	 -0.605	 -0.310	 26.200	 99.284	  0.241
44813	  0.158	  0.025	  0.431	 -1.500	 -0.137	 -7.686	 -0.387	 -0.099	 -0.090	 26.200	 99.288	 -0.118
44863	  0.153	  0.021	  0.438	 -0.955	 -0.363	 -8.214	 -0.137	  0.303	 -0.124	 26.200	 99.284	  0.241
44913	  0.142	  0.023	  0.443	  0.545	 -0.155	 -10.293	  0.109	  0.453	 -0.092	 26.200	 99.266	  1.853
44963	  0.131	  0.027	  0.446	  1.056	 -0.684	 -11.300	  0.129	  0.068	 -0.147	 26.200	 99.284	  0.241
45013	  0.135	  0.031	  0.437	 -0.410	 -0.617	 -9.785	 -0.078	 -0.224	 -0.215	 26.200	 99.288	 -0.118
45063	  0.141	  0.037	  0.442	 -0.951	 -0.321	 -8.330	 -0.042	 -0.189	 -0.067	 26.200	 99.277	  0.868
45113	  0.142	  0.040	  0.441	 -0.226	 -0.464	 -9.259	 -0.080	 -0.001	 -0.107	 26.200	 99.273	  1.226
45163	  0.145	  0.031	  0.440	  0.082	 -0.213	 -10.126	  0.116	  0.012	 -0.045	 26.200	 99.284	  0.241
45214	  0.141	  0.038	  0.437	 -0.223	 -0.623	 -9.620	  0.278	 -0.023	  0.034	 26.200	 99.288	 -0.118
45263	  0.144	  0.045	  0.437	 -0.776	 -1.154	 -7.575	  0.314	 -0.258	  0.236	 26.200	 99.277	  0.868
45313	  0.153	  0.056	  0.430	 -1.470	 -1.308	 -5.166	  0.502	 -0.737	  0.460	 26.200	 99.277	  0.868
45363	  0.164	  0.061	  0.441	 -0.808	 -1.674	 -6.797	 -0.415	 -0.040	  0.257	 26.200	 99.293	 -0.565
45413	  0.148	  0.040	  0.447	 -0.436	 -1.479	 -3.715	 -1.026	  0.002	  0.333	 26.200	 99.277	  0.868
45463	  0.126	  0.035	  0.461	  0.933	 -1.751	 -7.941	 -0.951	  0.648	  0.644	 26.200	 99.288	 -0.118
45513	  0.088	  0.021	  0.480	  0.361	 -0.722	 -5.094	 -0.209	  0.152	  1.164	 26.200	 99.277	  0.868
45563	  0.038	  0.050	  0.489	  0.095	 -0.968	 -9.763	 -0.094	  1.364	  1.248	 26.200	 99.277	  0.868
45613	 -0.023	  0.104	  0.478	 -0.147	 -0.919	 -9.648	  0.292	  1.007	  1.537	 26.200	 99.277	  0.868
45663	 -0.068	  0.153	  0.444	  1.794	  0.023	 -10.362	 -0.223	  1.371	  1.664	 26.200	 99.288	 -0.118
45713	 -0.084	  0.202	  0.388	  2.280	  2.133	 -10.075	 -0.003	  1.113	  2.153	 26.200	 99.277	  0.868
45763	 -0.070	  0.237	  0.323	 11.890	  7.387	 -9.828	  0.672	  0.580	  0.912	 26.200	 99.277	  0.868
45813	 -0.067	  0.255	  0.261	  8.318	  0.847	 -14.680	  1.355	 -0.318	 -2.161	 26.200	 99.288	 -0.118
45864	 -0.079	  0.249	  0.228	 -13.259	 -8.636	 -8.663	  0.221	  0.147	 -0.872	 26.200	 99.288	 -0.118
45913	 -0.046	  0.245	  0.196	 -5.745	 -1.774	 -6.971	 -0.931	  2.117	  3.635	 26.200	 99.288	 -0.118
45964	  0.000	  0.233	  0.156	 27.045	  9.975	 -12.904	  0.711	  0.213	 -0.737	 26.200	 99.277	  0.868
46014	 -0.014	  0.243	  0.123	 -10.009	 -15.453	 -17.835	  1.293	 -2.251	 -2.204	 26.200	 99.293	 -0.565
46064	  0.012	  0.228	  0.127	 -9.331	 -8.415	 -4.586	 -2.613	  2.366	  4.882	 26.200	 99.277	  0.868
46114	  0.047	  0.202	  0.129	 48.506	 14.734	 -12.286	  1.713	 -0.473	 -3.077	 26.200	 99.293	 -0.565
46164	 -0.027	  0.234	  0.121	 -29.221	 -19.671	 -7.004	  0.445	 -1.993	 -4.146	 26.200	 99.293	 -0.565
46214	  0.001	  0.231	  0.109	 -10.974	 -9.724	 -4.833	  0.350	  2.567	  6.612	 26.200	 99.293	 -0.565
46264	  0.048	  0.222	  0.083	 55.431	 18.507	 -17.953	  1.335	 -1.885	 -4.614	 26.200	 99.281	  0.510
46314	 -0.047	  0.251	  0.103	 -35.699	 -28.879	 10.300	  0.242	 -1.788	 -4.702	 26.200	 99.270	  1.495
46364	  0.000	  0.248	  0.061	 -12.930	 -16.148	 -15.636	 -0.860	  4.772	  9.608	 26.200	 99.293	 -0.565
46414	  0.047	  0.228	  0.069	 68.795	 22.002	 -9.976	  0.949	 -2.271	 -6.628	 26.200	 99.293	 -0.565
46464	 -0.076	  0.251	  0.090	 -49.897	 -33.857	 10.600	  0.339	 -1.073	 -4.070	 26.200	 99.293	 -0.565
46514	  0.015	  0.253	  0.040	 13.247	 -15.641	 -29.581	 -2.580	  5.587	 11.106	 26.200	 99.293	 -0.565
46564	  0.031	  0.248	  0.073	 51.468	 12.864	 -3.656	  1.246	 -3.026	 -8.398	 26.200	 99.277	  0.868
46614	 -0.083	  0.257	  0.087	 -56.676	 -27.350	  2.672	  1.160	 -0.034	 -0.985	 26.200	 99.300	 -1.192
46664	  0.007	  0.257	  0.058	 25.717	 -6.105	 -18.899	 -2.948	  2.534	  8.042	 26.200	 99.293	 -0.565
46714	  0.034	  0.251	  0.082	 26.745	  8.161	 -4.988	  0.493	 -1.277	 -3.789	 26.200	 99.281	  0.510
46764	 -0.016	  0.249	  0.079	 -19.377	 -14.999	 -4.900	  0.948	 -0.129	 -1.133	 26.200	 99.281	  0.510
46814	  0.031	  0.231	  0.069	  2.324	 -2.686	 -12.439	 -1.063	  2.705	  6.228	 26.200	 99.293	 -0.565
46864	  0.056	  0.209	  0.083	 35.888	  9.500	 -3.656	  0.787	 -0.248	 -4.524	 26.200	 99.281	  0.510
46914	 -0.013	  0.242	  0.075	 -17.260	 -12.329	 -21.716	  0.817	  0.471	 -2.199	 26.200	 99.293	 -0.565
46964	 -0.039	  0.240	  0.096	 -5.188	 -11.706	 -15.329	 -0.350	  1.436	  0.963	 26.200	 99.281	  0.510
47014	 -0.042	  0.253	  0.109	 -1.872	 -7.570	 -28.250	  0.037	 -0.048	  1.941	 26.200	 99.293	 -0.565
47064	 -0.061	  0.286	  0.178	  8.305	 -4.018	 -18.985	 -1.048	 -1.952	  0.140	 26.200	 99.293	 -0.565
47114	 -0.073	  0.306	  0.286	  2.738	 -2.644	 -11.902	  0.449	 -2.463	 -0.369	 26.200	 99.281	  0.510
47165	  0.007	  0.265	  0.393	  4.345	 -0.831	 -14.317	 -0.353	 -1.694	  0.880	 26.200	 99.281	  0.510
47215	  0.081	  0.170	  0.427	  6.046	  1.038	 -14.708	 -1.066	 -1.268	  0.501	 26.200	 99.293	 -0.565
47265	  0.133	  0.071	  0.411	  5.984	  1.047	 -9.141	 -0.500	 -2.457	 -0.190	 26.200	 99.281	  0.510
47315	  0.188	  0.042	  0.382	  3.244	 -0.859	 -12.700	  0.194	 -2.607	 -0.196	 26.200	 99.281	  0.510
47365	  0.243	 -0.000	  0.329	  2.759	 -0.772	 -8.861	 -0.959	 -2.623	  0.360	 26.200	 99.270	  1.495
47415	  0.289	 -0.019	  0.283	  1.706	 -0.114	 -4.319	 -0.316	 -2.197	  0.081	 26.200	 99.293	 -0.565
47465	  0.324	 -0.019	  0.251	 -4.399	 -1.196	 -3.667	 -0.362	 -1.270	 -0.133	 26.200	 99.281	  0.510
47515	  0.343	 -0.031	  0.225	 -1.052	 -1.062	 -3.888	  0.519	 -1.081	  1.691	 26.200	 99.270	  1.495
47565	  0.368	 -0.052	  0.194	 -0.134	 -2.182	 -4.638	  0.114	 -0.954	  0.829	 26.200	 99.270	  1.495
47615	  0.387	 -0.083	  0.171	 -3.516	  0.338	 -4.945	 -0.277	 -1.194	  2.105	 26.200	 99.270	  1.495
47665	  0.397	 -0.118	  0.144	 -0.210	 -0.413	 -3.672	 -0.136	 -1.010	  0.858	 26.200	 99.274	  1.136
47715	  0.405	 -0.146	  0.123	 -2.025	  1.279	 -5.144	 -0.955	 -0.983	  0.385	 26.200	 99.274	  1.136
47765	  0.412	 -0.157	  0.096	 -6.198	  1.364	 -0.280	 -1.562	 -0.883	 -0.652	 26.200	 99.259	  2.479
47815	  0.410	 -0.174	  0.070	 -5.838	  2.076	  0.434	  0.180	 -0.571	  0.842	 26.200	 99.270	  1.495
47865	  0.412	 -0.181	  0.059	 -5.242	  3.900	 -1.071	 -0.090	 -0.271	 -0.264	 26.200	 99.274	  1.136
47915	  0.415	 -0.168	  0.063	 -9.181	  1.563	 -2.937	  0.180	  0.046	 -0.110	 26.200	 99.270	  1.495
47965	  0.414	 -0.173	  0.069	 -6.798	  2.428	 -2.976	  0.212	  0.102	  0.076	 26.200	 99.274	  1.136
48015	  0.411	 -0.167	  0.071	 -7.641	  1.927	 -6.034	  0.389	  0.276	 -0.128	 26.200	 99.263	  2.122
48065	  0.413	 -0.162	  0.082	 -6.989	  1.120	 -7.234	  0.293	  0.176	 -0.039	 26.200	 99.274	  1.136
48115	  0.411	 -0.156	  0.091	 -7.697	  1.631	 -7.239	  0.076	  0.286	  0.080	 26.200	 99.274	  1.136
48165	  0.410	 -0.160	  0.093	 -6.736	  1.879	 -7.514	  0.171	  0.030	  0.260	 26.200	 99.259	  2.479
48215	  0.410	 -0.162	  0.089	 -5.646	  2.048	 -6.546	 -0.124	 -0.184	 -0.007	 26.200	 99.286	  0.061
48265	  0.412	 -0.159	  0.084	 -6.293	  1.286	 -2.083	 -0.566	 -0.291	 -0.517	 26.200	 99.263	  2.122
48315	  0.414	 -0.150	  0.084	 -8.163	  2.573	  2.560	 -0.136	  0.593	 -0.248	 26.200	 99.259	  2.479
48365	  0.415	 -0.140	  0.100	 -6.622	  1.182	 -0.185	  0.392	  0.401	 -0.112	 26.200	 99.259	  2.479
48415	  0.410	 -0.127	  0.118	 -3.189	  1.103	  0.927	  0.239	  0.866	 -0.089	 26.200	 99.263	  2.122
48465	  0.400	 -0.111	  0.143	 -1.229	  0.357	 -2.914	  1.571	  0.744	  0.061	 26.200	 99.263	  2.122
48515	  0.386	 -0.097	  0.171	  2.151	 -0.902	 -1.613	 -0.059	  0.942	 -0.667	 26.200	 99.274	  1.136
48565	  0.366	 -0.066	  0.197	  0.773	 -1.537	 -5.624	  1.796	  1.102	 -0.089	 26.200	 99.274	  1.136
48615	  0.340	 -0.041	  0.235	  0.994	 -1.755	 -5.550	  0.742	  1.715	 -0.530	 26.200	 99.259	  2.479
48665	  0.295	 -0.026	  0.282	 -2.163	 -1.495	 -8.420	 -0.147	  3.084	 -0.111	 26.200	 99.263	  2.122
48715	  0.228	 -0.027	  0.340	  4.056	 -3.613	 -7.648	  0.338	  4.180	  0.470	 26.200	 99.286	  0.061
48765	  0.156	  0.009	  0.379	  3.790	 -2.210	 -9.412	  1.287	  2.545	  0.732	 26.300	 99.290	 -0.297
48815	  0.102	  0.079	  0.407	  7.933	 -6.155	 -14.995	  1.719	  3.465	  0.941	 26.200	 99.286	  0.061
48865	  0.021	  0.135	  0.402	  9.420	 -3.827	 -14.958	  0.328	  4.124	  1.237	 26.200	 99.274	  1.136
48915	 -0.034	  0.182	  0.367	  9.237	 -2.820	 -16.310	  0.566	  3.482	  0.486	 26.200	 99.286	  0.061
48965	 -0.077	  0.221	  0.305	  8.707	 -5.637	 -17.536	  2.153	  2.275	  0.272	 26.200	 99.286	  0.061
49015	 -0.083	  0.245	  0.249	  8.110	 -5.583	 -22.226	  1.212	  1.104	  0.183	 26.200	 99.286	  0.061
49065	 -0.102	  0.232	  0.232	  5.111	 -5.044	 -19.191	  0.005	  0.883	 -0.617	 26.200	 99.286	  0.061
49115	 -0.116	  0.242	  0.231	  4.356	 -4.710	 -17.642	 -0.069	 -0.210	 -0.392	 26.200	 99.286	  0.061
49165	 -0.118	  0.232	  0.249	  5.158	 -4.531	 -16.416	 -0.859	 -0.952	 -0.200	 26.200	 99.286	  0.061
49215	 -0.114	  0.230	  0.284	  8.002	 -3.755	 -13.954	 -0.686	 -1.379	 -0.220	 26.200	 99.286	  0.061
49265	 -0.103	  0.212	  0.326	  8.269	 -4.359	 -14.497	 -0.728	 -2.005	 -0.485	 26.300	 99.290	 -0.297
49315	 -0.071	  0.173	  0.370	  7.365	 -4.505	 -14.730	 -0.823	 -2.649	 -0.281	 26.200	 99.279	  0.689
49365	 -0.023	  0.113	  0.404	  8.713	 -4.258	 -13.739	 -1.211	 -2.680	  0.144	 26.200	 99.274	  1.136
49415	  0.035	  0.043	  0.417	  9.277	 -3.249	 -13.549	 -1.890	 -2.606	 -0.285	 26.200	 99.279	  0.689
49465	  0.093	 -0.031	  0.399	  7.097	 -1.664	 -10.573	 -1.645	 -3.109	 -0.725	 26.300	 99.279	  0.689
49515	  0.171	 -0.077	  0.359	  4.429	 -1.485	 -11.059	 -1.157	 -3.427	 -0.649	 26.200	 99.274	  1.136
49565	  0.236	 -0.100	  0.317	  2.454	 -1.532	 -7.647	 -1.601	 -2.857	 -0.763	 26.200	 99.274	  1.136
49615	  0.296	 -0.120	  0.265	  1.244	 -0.911	 -3.139	 -1.202	 -2.417	 -0.649	 26.200	 99.274	  1.136
49665	  0.340	 -0.129	  0.213	 -2.745	 -0.477	 -1.658	 -0.734	 -2.138	 -0.162	 26.200	 99.274	  1.136
49715	  0.367	 -0.135	  0.175	 -1.366	  0.241	 -0.040	 -0.323	 -1.476	  0.322	 26.300	 99.268	  1.674
49765	  0.384	 -0.148	  0.141	 -4.509	  0.936	 -0.336	  0.007	 -1.124	  0.345	 26.200	 99.274	  1.136
49815	  0.393	 -0.161	  0.120	 -1.569	  0.882	 -1.080	  0.556	 -1.323	  0.485	 26.200	 99.279	  0.689
49865	  0.404	 -0.158	  0.098	 -5.872	  1.600	 -1.979	  0.144	 -0.496	  0.008	 26.200	 99.263	  2.122
49915	  0.406	 -0.170	  0.090	 -5.815	  1.339	 -2.482	  0.006	 -0.465	  0.099	 26.300	 99.268	  1.674
49965	  0.405	 -0.167	  0.082	 -7.454	  2.034	 -3.797	  0.318	 -0.139	  0.096	 26.300	 99.268	  1.674
50015	  0.406	 -0.168	  0.085	 -6.713	  2.207	 -4.021	 -0.159	  0.068	 -0.002	 26.200	 99.268	  1.674
50065	  0.408	 -0.170	  0.090	 -6.982	  2.088	 -6.078	  0.247	  0.123	  0.131	 26.300	 99.279	  0.689
50115	  0.403	 -0.167	  0.094	 -6.890	  2.237	 -5.718	  0.065	  0.069	 -0.152	 26.300	 99.268	  1.674
50165	  0.404	 -0.163	  0.095	 -7.741	  2.282	 -6.711	  0.098	  0.112	  0.056	 26.200	 99.263	  2.122
50215	  0.406	 -0.160	  0.101	 -6.657	  1.693	 -6.993	  0.243	 -0.030	 -0.015	 26.200	 99.274	  1.136
50265	  0.404	 -0.165	  0.095	 -7.243	  1.806	 -7.415	  0.036	  0.118	  0.054	 26.300	 99.268	  1.674
50315	  0.403	 -0.166	  0.098	 -6.975	  1.563	 -7.364	  0.035	 -0.024	  0.156	 26.300	 99.283	  0.331
50365	  0.404	 -0.170	  0.098	 -6.573	  1.977	 -7.386	 -0.115	 -0.034	  0.071	 26.300	 99.268	  1.674
50415	  0.403	 -0.170	  0.098	 -6.352	  1.889	 -6.517	 -0.099	 -0.074	 -0.048	 26.300	 99.268	  1.674
50465	  0.404	 -0.164	  0.091	 -7.597	  2.114	 -6.026	  0.038	 -0.151	 -0.005	 26.300	 99.268	  1.674
50515	  0.406	 -0.170	  0.088	 -6.957	  1.854	 -6.489	 -0.033	 -0.124	  0.092	 26.300	 99.279	  0.689
50565	  0.406	 -0.172	  0.088	 -6.987	  2.235	 -6.165	 -0.010	 -0.097	  0.069	 26.300	 99.272	  1.315
50615	  0.405	 -0.175	  0.084	 -6.744	  2.257	 -5.620	 -0.066	 -0.118	 -0.044	 26.300	 99.272	  1.315
50665	  0.406	 -0.176	  0.078	 -6.968	  2.236	 -5.749	  0.171	 -0.106	 -0.007	 26.300	 99.283	  0.331
50715	  0.406	 -0.172	  0.084	 -7.519	  1.789	 -5.993	 -0.057	 -0.091	 -0.120	 26.300	 99.268	  1.674
50765	  0.407	 -0.173	  0.082	 -7.482	  2.006	 -5.785	  0.102	 -0.037	  0.069	 26.300	 99.279	  0.689
50815	  0.406	 -0.172	  0.083	 -7.512	  1.970	 -6.388	 -0.006	  0.024	  0.035	 26.300	 99.279	  0.689
50865	  0.406	 -0.171	  0.085	 -7.074	  2.049	 -6.420	 -0.009	 -0.030	  0.090	 26.300	 99.268	  1.674
50915	  0.410	 -0.174	  0.075	 -6.877	  2.253	 -5.943	 -0.080	 -0.006	  0.020	 26.200	 99.274	  1.136
50965	  0.409	 -0.173	  0.076	 -6.735	  2.494	 -4.790	 -0.018	 -0.017	 -0.112	 26.300	 99.279	  0.689
51015	  0.410	 -0.173	  0.083	 -6.332	  2.389	 -5.118	  0.178	 -0.036	 -0.143	 26.300	 99.268	  1.674
51066	  0.411	 -0.166	  0.079	 -4.306	  2.216	 -4.709	 -0.496	  0.026	 -0.322	 26.300	 99.268	  1.674
51115	  0.413	 -0.154	  0.081	 -3.014	  3.039	 -0.185	  0.166	 -0.149	 -0.815	 26.300	 99.272	  1.315
51166	  0.416	 -0.123	  0.077	 -3.648	  1.555	 -4.961	 -0.099	  0.338	 -1.141	 26.300	 99.283	  0.331
51215	  0.415	 -0.103	  0.096	 -2.941	  0.956	 -3.784	 -0.363	  0.360	 -1.243	 26.300	 99.272	  1.315
51265	  0.411	 -0.080	  0.105	 -2.508	  1.252	 -4.062	 -0.792	  0.603	 -1.487	 26.300	 99.268	  1.674
51315	  0.404	 -0.052	  0.120	 -1.174	 -0.236	 -7.635	 -0.465	  0.895	 -1.673	 26.300	 99.272	  1.315
51365	  0.392	 -0.032	  0.143	 -4.280	  0.192	 -5.709	 -1.933	  1.225	 -2.190	 26.300	 99.279	  0.689
51415	  0.370	 -0.016	  0.180	 -5.541	 -0.426	 -8.925	 -1.144	  1.886	 -1.809	 26.300	 99.283	  0.331
51465	  0.350	 -0.009	  0.213	 -3.821	 -0.975	 -10.409	 -1.682	  2.119	 -1.675	 26.300	 99.283	  0.331
51515	  0.312	 -0.014	  0.266	 -8.936	  1.906	 -10.627	 -2.039	  2.698	 -0.984	 26.300	 99.283	  0.331
51565	  0.276	 -0.036	  0.307	 -3.766	  0.625	 -11.728	 -0.784	  2.125	 -0.667	 26.300	 99.283	  0.331
51616	  0.239	 -0.044	  0.342	 -4.301	  3.132	 -11.867	 -0.879	  2.073	 -0.061	 26.300	 99.283	  0.331
51666	  0.199	 -0.048	  0.379	 -0.062	  1.789	 -15.492	  0.369	  1.408	 -0.308	 26.300	 99.283	  0.331
51716	  0.170	 -0.045	  0.398	 -1.599	  1.950	 -13.581	 -0.653	  1.026	 -0.488	 26.300	 99.283	  0.331
51766	  0.140	 -0.048	  0.413	 -0.553	  1.070	 -10.699	 -0.412	  1.499	 -0.407	 26.300	 99.279	  0.689
51816	  0.111	 -0.032	  0.416	 -1.334	  1.253	 -10.063	  0.849	  0.719	  0.097	 26.300	 99.272	  1.315
51866	  0.070	 -0.019	  0.440	  0.828	 -0.582	 -13.854	  0.045	  1.494	  0.028	 26.300	 99.283	  0.331
51916	  0.044	 -0.031	  0.442	  0.238	  0.613	 -10.961	 -0.740	  0.434	 -0.444	 26.300	 99.272	  1.315
51966	  0.033	 -0.037	  0.442	  0.619	  1.462	 -11.146	 -0.077	  0.205	 -0.325	 26.300	 99.283	  0.331
52016	  0.026	 -0.033	  0.443	  1.119	  1.303	 -10.893	  0.062	  0.312	 -0.559	 26.300	 99.279	  0.689
52066	  0.018	 -0.024	  0.443	  0.034	  0.998	 -12.033	  0.603	  0.516	 -0.078	 26.300	 99.279	  0.689
52116	  0.014	 -0.026	  0.446	  0.049	  1.586	 -9.824	 -0.111	  0.493	 -0.646	 26.300	 99.272	  1.315
52166	  0.014	 -0.021	  0.449	  1.053	  1.128	 -8.860	  0.345	 -0.408	 -0.231	 26.300	 99.290	 -0.297
52216	  0.023	 -0.009	  0.444	  1.181	  1.198	 -8.779	  0.473	 -0.451	 -0.121	 26.300	 99.272	  1.315
52266	  0.033	 -0.004	  0.439	  1.266	  0.715	 -9.631	 -0.015	 -0.045	  0.065	 26.300	 99.283	  0.331
52316	  0.034	 -0.007	  0.445	  1.420	  0.882	 -10.235	 -0.291	  0.052	 -0.118	 26.300	 99.283	  0.331
52366	  0.029	 -0.018	  0.443	  1.261	  1.756	 -8.890	 -0.281	  0.254	 -0.236	 26.300	 99.283	  0.331
52416	  0.027	 -0.018	  0.441	  1.519	  1.977	 -8.879	  0.169	  0.013	  0.163	 26.300	 99.272	  1.315
52466	  0.028	 -0.011	  0.440	  1.405	  2.053	 -9.155	  0.249	 -0.199	  0.162	 26.300	 99.283	  0.331
52516	  0.035	 -0.006	  0.442	  1.746	  2.165	 -9.700	  0.304	 -0.410	 -0.081	 26.300	 99.283	  0.331
52566	  0.049	  0.007	  0.435	  1.279	  2.209	 -10.149	  0.535	 -0.636	 -0.250	 26.300	 99.272	  1.315
52616	  0.064	  0.022	  0.432	 -0.338	  3.728	 -11.073	  0.349	 -0.715	 -0.300	 26.300	 99.294	 -0.655
52666	  0.083	  0.028	  0.428	  0.673	  2.328	 -10.045	  0.363	 -0.596	 -0.249	 26.300	 99.272	  1.315
52716	  0.098	  0.037	  0.427	  0.612	  1.957	 -9.733	  0.391	 -0.588	 -0.020	 26.300	 99.272	  1.315
52766	  0.117	  0.050	  0.426	  0.091	  1.319	 -9.326	  0.334	 -0.614	  0.212	 26.300	 99.283	  0.331
52816	  0.131	  0.050	  0.424	  0.129	  1.385	 -9.467	 -0.205	 -0.371	  0.227	 26.300	 99.283	  0.331
52866	  0.149	  0.045	  0.418	 -1.000	  1.359	 -8.202	  0.068	 -0.668	  0.012	 26.300	 99.283	  0.331
52916	  0.159	  0.045	  0.414	 -0.921	  0.751	 -9.029	 -0.334	  0.071	 -0.076	 26.300	 99.287	 -0.028
52966	  0.158	  0.037	  0.423	 -0.883	  0.256	 -9.544	 -0.685	  0.301	 -0.688	 26.300	 99.283	  0.331
53016	  0.145	  0.022	  0.424	 -0.532	  0.989	 -9.253	 -0.789	  0.449	 -1.216	 26.300	 99.272	  1.315
53066	  0.137	  0.018	  0.427	 -0.104	  1.028	 -9.272	 -0.283	  0.233	 -1.069	 26.300	 99.272	  1.315
53116	  0.135	  0.031	  0.425	 -0.625	  0.563	 -8.749	  0.145	  0.016	 -0.772	 26.300	 99.283	  0.331
53166	  0.132	  0.042	  0.434	 -0.821	 -0.202	 -9.193	  0.289	  0.048	 -0.642	 26.300	 99.287	 -0.028
53216	  0.127	  0.058	  0.428	 -0.709	 -0.802	 -9.758	  0.175	  0.213	 -0.624	 26.300	 99.287	 -0.028
53266	  0.121	  0.054	  0.433	 -0.493	 -0.743	 -9.919	 -0.025	  0.213	 -0.563	 26.300	 99.276	  0.957
53316	  0.115	  0.057	  0.438	 -0.480	 -0.588	 -10.149	  0.039	  0.147	 -0.115	 26.300	 99.272	  1.315
53366	  0.112	  0.055	  0.438	 -0.248	 -0.259	 -10.452	  0.082	  0.005	  0.217	 26.300	 99.287	 -0.028
53416	  0.120	  0.069	  0.442	 -0.306	  0.085	 -9.977	  0.199	 -0.131	  0.408	 26.300	 99.283	  0.331
53466	  0.123	  0.068	  0.440	 -0.486	  0.698	 -9.677	  0.231	 -0.089	  0.489	 26.300	 99.283	  0.331
53516	  0.127	  0.067	  0.438	 -0.407	  0.659	 -9.593	  0.318	 -0.016	  0.303	 26.300	 99.272	  1.315
53566	  0.134	  0.078	  0.440	 -0.220	  0.834	 -9.457	  0.390	  0.043	  0.272	 26.300	 99.287	 -0.028
53616	  0.135	  0.082	  0.439	 -0.148	  0.399	 -9.522	  0.165	  0.029	  0.205	 26.300	 99.276	  0.957
53666	  0.135	  0.083	  0.435	 -0.055	  0.334	 -9.656	 -0.017	  0.012	  0.189	 26.300	 99.287	 -0.028
53716	  0.137	  0.079	  0.443	 -0.077	  0.514	 -9.677	 -0.013	 -0.052	  0.134	 26.300	 99.276	  0.957
53766	  0.140	  0.081	  0.437	 -0.321	  0.550	 -9.552	  0.045	 -0.046	  0.225	 26.300	 99.283	  0.331
53816	  0.140	  0.081	  0.444	 -0.218	  0.446	 -9.791	  0.004	  0.044	  0.020	 26.300	 99.276	  0.957
53866	  0.142	  0.077	  0.441	 -0.058	  0.636	 -9.639	  0.060	  0.046	 -0.132	 26.300	 99.276	  0.957
53916	  0.141	  0.081	  0.438	 -0.264	  0.472	 -9.465	  0.160	 -0.056	 -0.095	 26.300	 99.265	  1.942
53966	  0.145	  0.098	  0.443	 -0.392	 -0.106	 -9.709	  0.156	 -0.021	 -0.128	 26.300	 99.283	  0.331
54016	  0.142	  0.090	  0.437	 -0.454	 -0.205	 -9.594	  0.086	  0.025	 -0.170	 26.300	 99.276	  0.957
54066	  0.143	  0.100	  0.440	 -0.413	 -0.284	 -9.652	  0.065	  0.007	 -0.111	 26.300	 99.276	  0.957
54116	  0.140	  0.100	  0.445	 -0.301	 -0.388	 -9.899	  0.020	  0.014	 -0.101	 26.300	 99.287	 -0.028
54166	  0.142	  0.102	  0.444	 -0.196	 -0.253	 -9.831	  0.007	  0.034	 -0.082	 26.300	 99.287	 -0.028
54216	  0.142	  0.111	  0.446	 -0.237	 -0.298	 -9.698	  0.099	 -0.018	  0.028	 26.300	 99.265	  1.942
54266	  0.142	  0.106	  0.447	 -0.396	 -0.488	 -9.630	  0.051	  0.018	  0.100	 26.300	 99.287	 -0.028
54316	  0.144	  0.110	  0.446	 -0.267	 -0.432	 -9.663	 -0.070	  0.048	  0.046	 26.300	 99.276	  0.957
54366	  0.142	  0.101	  0.445	 -0.278	 -0.190	 -9.844	 -0.064	 -0.007	  0.100	 26.300	 99.287	 -0.028
54416	  0.146	  0.096	  0.445	 -0.295	 -0.134	 -9.854	 -0.032	 -0.011	  0.143	 26.300	 99.276	  0.957
54466	  0.143	  0.096	  0.449	 -0.147	 -0.049	 -9.823	 -0.002	 -0.013	  0.147	 26.300	 99.276	  0.957
54516	  0.148	  0.093	  0.442	 -0.089	 -0.013	 -9.643	  0.036	 -0.019	  0.141	 26.300	 99.287	 -0.028
54566	  0.149	  0.094	  0.450	 -0.301	 -0.024	 -9.408	  0.067	  0.013	  0.195	 26.300	 99.298	 -1.012
54616	  0.149	  0.093	  0.450	 -0.403	 -0.216	 -9.524	  0.019	  0.083	  0.178	 26.300	 99.287	 -0.028
54666	  0.146	  0.095	  0.452	 -0.294	 -0.020	 -9.576	 -0.087	  0.088	  0.129	 26.300	 99.287	 -0.028
54716	  0.148	  0.091	  0.452	 -0.261	  0.073	 -9.744	 -0.088	  0.060	  0.095	 26.300	 99.287	 -0.028
54766	  0.145	  0.091	  0.451	 -0.214	  0.224	 -9.740	 -0.049	  0.042	  0.101	 26.300	 99.276	  0.957
54816	  0.147	  0.088	  0.448	 -0.251	 -0.002	 -9.803	  0.036	  0.035	  0.098	 26.300	 99.276	  0.957
54866	  0.143	  0.095	  0.454	 -0.154	  0.012	 -9.660	 -0.016	  0.016	  0.078	 26.300	 99.276	  0.957
54916	  0.147	  0.086	  0.453	 -0.209	  0.093	 -9.679	 -0.018	  0.003	  0.077	 26.300	 99.280	  0.599
54966	  0.146	  0.091	  0.453	 -0.197	  0.031	 -9.579	 -0.035	  0.012	  0.065	 26.300	 99.265	  1.942
55016	  0.146	  0.083	  0.453	 -0.265	  0.011	 -9.558	  0.016	  0.025	  0.098	 26.300	 99.287	 -0.028
55066	  0.143	  0.094	  0.455	 -0.270	 -0.108	 -9.624	 -0.004	  0.018	  0.056	 26.300	 99.276	  0.957
55116	  0.148	  0.084	  0.451	 -0.187	 -0.139	 -9.715	 -0.020	 -0.008	  0.022	 26.300	 99.276	  0.957
55166	  0.150	  0.083	  0.454	 -0.165	 -0.164	 -9.696	  0.017	 -0.028	  0.044	 26.300	 99.276	  0.957
55216	  0.149	  0.083	  0.452	 -0.245	 -0.194	 -9.700	  0.022	 -0.018	  0.040	 26.300	 99.276	  0.957
55266	  0.150	  0.081	  0.454	 -0.170	 -0.196	 -9.893	  0.027	 -0.042	  0.031	 26.300	 99.287	 -0.028
55316	  0.155	  0.084	  0.457	 -0.199	 -0.158	 -9.746	  0.012	 -0.080	  0.091	 26.300	 99.280	  0.599
55366	  0.159	  0.084	  0.446	 -0.306	 -0.193	 -9.670	  0.026	 -0.104	  0.109	 26.300	 99.287	 -0.028
55416	  0.159	  0.084	  0.453	 -0.434	 -0.341	 -9.666	  0.007	 -0.071	  0.113	 26.300	 99.276	  0.957
55466	  0.163	  0.080	  0.452	 -0.374	 -0.157	 -9.548	 -0.015	 -0.004	  0.049	 26.300	 99.291	 -0.386
55516	  0.161	  0.090	  0.452	 -0.468	 -0.397	 -9.661	  0.044	  0.031	  0.064	 26.300	 99.280	  0.599
55566	  0.160	  0.080	  0.455	 -0.377	 -0.304	 -9.799	  0.040	  0.082	  0.019	 26.300	 99.280	  0.599
55616	  0.157	  0.079	  0.444	 -0.569	 -0.420	 -9.662	  0.033	  0.047	  0.022	 26.300	 99.280	  0.599
55666	  0.157	  0.082	  0.456	 -0.444	 -0.376	 -9.684	 -0.062	  0.082	 -0.104	 26.300	 99.280	  0.599
55716	  0.155	  0.088	  0.456	 -0.465	 -0.228	 -9.675	 -0.089	  0.083	 -0.157	 26.300	 99.291	 -0.386
55766	  0.155	  0.075	  0.458	 -0.684	 -0.366	 -9.640	 -0.167	  0.030	 -0.238	 26.300	 99.291	 -0.386
55816	  0.156	  0.072	  0.458	 -0.507	 -0.231	 -9.605	 -0.295	  0.026	 -0.365	 26.300	 99.280	  0.599
55866	  0.156	  0.060	  0.460	 -0.444	 -0.155	 -9.608	 -0.382	 -0.084	 -0.450	 26.300	 99.280	  0.599
55916	  0.160	  0.054	  0.460	 -0.387	  0.126	 -9.490	 -0.501	 -0.221	 -0.427	 26.300	 99.276	  0.957
55966	  0.165	  0.049	  0.463	 -0.479	  0.223	 -9.605	 -0.379	 -0.228	 -0.536	 26.300	 99.280	  0.599
56016	  0.171	  0.043	  0.461	 -0.489	  0.328	 -9.591	 -0.292	 -0.128	 -0.702	 26.300	 99.280	  0.599
56066	  0.169	  0.032	  0.466	 -0.290	  0.619	 -9.343	 -0.181	 -0.046	 -0.859	 26.300	 99.280	  0.599
56116	  0.169	  0.043	  0.466	 -0.898	  1.230	 -9.031	  0.101	 -0.057	 -0.601	 26.300	 99.269	  1.585
56166	  0.168	  0.047	  0.467	 -0.708	  0.675	 -9.762	  0.221	  0.256	 -0.822	 26.300	 99.291	 -0.386
56216	  0.155	  0.055	  0.474	 -0.062	  1.092	 -9.755	 -0.088	  0.442	 -0.915	 26.300	 99.291	 -0.386
56267	  0.142	  0.061	  0.477	  0.021	  1.827	 -9.083	 -0.096	  0.258	 -0.533	 26.300	 99.276	  0.957
56316	  0.136	  0.052	  0.474	 -0.062	  1.305	 -9.738	 -0.139	  0.157	 -0.534	 26.300	 99.280	  0.599
56366	  0.130	  0.055	  0.481	 -0.198	  1.472	 -9.785	 -0.194	  0.183	 -0.569	 26.300	 99.269	  1.585
56416	  0.119	  0.060	  0.486	 -0.317	  1.512	 -9.691	 -0.066	  0.136	 -0.441	 26.300	 99.280	  0.599
56466	  0.117	  0.057	  0.483	 -0.392	  1.346	 -9.569	 -0.013	  0.084	 -0.372	 26.300	 99.284	  0.241
56516	  0.114	  0.050	  0.486	 -0.302	  1.325	 -9.847	 -0.182	  0.136	 -0.346	 26.300	 99.269	  1.585
56566	  0.110	  0.044	  0.487	 -0.136	  1.705	 -9.611	 -0.215	  0.074	 -0.357	 26.300	 99.280	  0.599
56616	  0.107	  0.041	  0.491	 -0.262	  1.551	 -9.521	 -0.076	  0.028	 -0.277	 26.300	 99.284	  0.241
56666	  0.106	  0.043	  0.489	 -0.300	  1.441	 -9.477	 -0.069	  0.068	 -0.281	 26.300	 99.280	  0.599
56716	  0.100	  0.045	  0.493	 -0.180	  1.378	 -9.559	 -0.100	  0.073	 -0.252	 26.300	 99.269	  1.585
56767	  0.100	  0.040	  0.491	 -0.085	  1.531	 -9.508	 -0.107	  0.075	 -0.217	 26.300	 99.280	  0.599
56817	  0.097	  0.037	  0.493	  0.007	  1.574	 -9.445	  0.007	  0.070	 -0.214	 26.300	 99.280	  0.599
56867	  0.096	  0.041	  0.487	  0.097	  1.347	 -9.465	  0.107	  0.097	 -0.209	 26.300	 99.280	  0.599
56918	  0.093	  0.045	  0.489	  0.183	  1.351	 -9.620	  0.022	  0.095	 -0.163	 26.300	 99.269	  1.585
56967	  0.089	  0.043	  0.493	  0.436	  1.487	 -9.586	 -0.075	  0.084	 -0.250	 26.300	 99.280	  0.599
57018	  0.087	  0.044	  0.493	  0.313	  1.774	 -9.376	 -0.108	  0.047	 -0.174	 26.300	 99.284	  0.241
57067	  0.083	  0.043	  0.493	  0.059	  1.598	 -9.190	  0.016	  0.061	 -0.116	 26.300	 99.296	 -0.833
57117	  0.079	  0.043	  0.489	  0.061	  1.388	 -9.494	 -0.110	  0.148	 -0.161	 26.300	 99.269	  1.585
57167	  0.072	  0.037	  0.488	  0.188	  1.574	 -9.561	 -0.134	  0.132	 -0.200	 26.300	 99.284	  0.241
57218	  0.066	  0.032	  0.484	  0.304	  1.656	 -9.679	 -0.089	  0.084	 -0.156	 26.300	 99.273	  1.226
57268	  0.064	  0.032	  0.490	  0.171	  1.645	 -9.556	  0.037	 -0.013	 -0.060	 26.300	 99.269	  1.585
57318	  0.062	  0.032	  0.487	  0.277	  1.567	 -9.913	 -0.056	  0.007	 -0.121	 26.300	 99.280	  0.599
57368	  0.058	  0.033	  0.489	  0.327	  2.024	 -9.662	 -0.107	 -0.048	 -0.116	 26.300	 99.284	  0.241
57418	  0.061	  0.030	  0.476	  0.209	  2.131	 -9.432	  0.045	 -0.149	 -0.038	 26.300	 99.284	  0.241
57468	  0.064	  0.034	  0.477	 -0.002	  1.785	 -9.378	  0.113	 -0.164	 -0.004	 26.300	 99.273	  1.226
57518	  0.063	  0.035	  0.476	 -0.073	  1.538	 -9.397	  0.106	 -0.075	 -0.062	 26.300	 99.273	  1.226
57568	  0.062	  0.041	  0.472	  0.007	  1.711	 -9.420	  0.040	 -0.083	 -0.048	 26.300	 99.280	  0.599
57618	  0.064	  0.049	  0.473	 -0.014	  1.638	 -9.669	  0.100	 -0.123	  0.026	 26.300	 99.269	  1.585
57668	  0.062	  0.049	  0.466	  0.067	  1.721	 -9.600	  0.034	 -0.096	  0.027	 26.300	 99.273	  1.226
57718	  0.062	  0.046	  0.465	 -0.148	  1.654	 -9.441	  0.151	 -0.185	  0.083	 26.300	 99.280	  0.599
57768	  0.062	  0.056	  0.455	 -0.164	  1.367	 -9.502	  0.115	 -0.155	  0.017	 26.300	 99.280	  0.599
57818	  0.062	  0.053	  0.450	 -0.244	  1.405	 -9.451	  0.119	 -0.149	 -0.053	 26.300	 99.284	  0.241
57868	  0.063	  0.059	  0.449	 -0.215	  1.155	 -9.673	  0.171	 -0.121	 -0.121	 26.300	 99.296	 -0.833
57918	  0.060	  0.065	  0.444	 -0.366	  1.086	 -9.680	  0.241	 -0.169	 -0.089	 26.300	 99.284	  0.241
57968	  0.062	  0.076	  0.432	 -0.499	  1.015	 -9.573	  0.276	 -0.171	 -0.126	 26.300	 99.273	  1.226
58018	  0.062	  0.082	  0.430	 -0.356	  1.058	 -9.854	  0.236	 -0.120	 -0.146	 26.300	 99.284	  0.241
58068	  0.058	  0.093	  0.423	 -0.243	  1.211	 -9.719	  0.207	 -0.248	 -0.187	 26.300	 99.273	  1.226
58118	  0.058	  0.105	  0.416	 -0.479	  1.171	 -9.783	  0.175	 -0.259	 -0.278	 26.300	 99.273	  1.226
58168	  0.058	  0.115	  0.415	 -0.654	  1.158	 -9.693	  0.131	 -0.171	 -0.491	 26.300	 99.273	  1.226
58218	  0.050	  0.120	  0.408	 -0.619	  1.149	 -9.510	  0.199	 -0.162	 -0.596	 26.300	 99.273	  1.226
58268	  0.046	  0.132	  0.405	 -0.935	  0.778	 -9.431	  0.332	 -0.241	 -0.632	 26.300	 99.284	  0.241
58318	  0.042	  0.150	  0.399	 -1.005	  0.253	 -9.343	  0.163	 -0.239	 -0.770	 26.300	 99.280	  0.599
58368	  0.033	  0.150	  0.403	 -0.994	  0.103	 -9.298	 -0.164	 -0.254	 -0.968	 26.300	 99.284	  0.241
58418	  0.028	  0.140	  0.400	 -1.029	  0.195	 -9.202	 -0.277	 -0.251	 -0.992	 26.300	 99.280	  0.599
58468	  0.020	  0.126	  0.396	 -1.029	  0.225	 -9.196	 -0.328	 -0.244	 -1.109	 26.300	 99.284	  0.241
58518	  0.014	  0.119	  0.399	 -1.044	  0.034	 -9.489	 -0.299	 -0.129	 -1.219	 26.300	 99.284	  0.241
58568	  0.004	  0.108	  0.406	 -0.979	 -0.049	 -9.640	 -0.291	 -0.068	 -1.283	 26.300	 99.273	  1.226
58618	 -0.004	  0.099	  0.403	 -1.060	 -0.141	 -9.664	 -0.254	 -0.072	 -1.252	 26.300	 99.284	  0.241
58668	 -0.010	  0.086	  0.406	 -1.162	 -0.289	 -9.781	 -0.281	 -0.082	 -1.344	 26.300	 99.273	  1.226
58718	 -0.017	  0.073	  0.403	 -1.297	 -0.303	 -9.689	 -0.223	 -0.045	 -1.337	 26.300	 99.284	  0.241
58768	 -0.024	  0.058	  0.398	 -1.251	 -0.404	 -9.897	 -0.254	  0.051	 -1.436	 26.300	 99.284	  0.241
58818	 -0.033	  0.049	  0.404	 -1.165	 -0.314	 -9.684	 -0.157	  0.040	 -1.493	 26.300	 99.284	  0.241
58868	 -0.038	  0.043	  0.402	 -1.391	 -0.342	 -9.332	 -0.095	 -0.097	 -1.344	 26.300	 99.284	  0.241
58918	 -0.039	  0.029	  0.401	 -1.631	 -0.625	 -9.223	 -0.167	 -0.094	 -1.430	 26.300	 99.273	  1.226
58968	 -0.041	  0.022	  0.392	 -1.597	 -0.837	 -9.119	 -0.240	 -0.023	 -1.608	 26.300	 99.277	  0.868
59018	 -0.045	  0.004	  0.394	 -1.491	 -0.803	 -9.217	 -0.327	  0.049	 -1.639	 26.300	 99.273	  1.226
59068	 -0.052	 -0.008	  0.394	 -1.487	 -0.758	 -9.265	 -0.326	  0.093	 -1.728	 26.300	 99.273	  1.226
59118	 -0.057	 -0.025	  0.393	 -1.649	 -0.752	 -9.302	 -0.235	  0.172	 -1.624	 26.300	 99.277	  0.868
59168	 -0.065	 -0.039	  0.387	 -1.699	 -0.865	 -9.538	 -0.344	  0.340	 -1.648	 26.300	 99.273	  1.226
59218	 -0.073	 -0.055	  0.387	 -1.684	 -0.753	 -9.508	 -0.248	  0.325	 -1.664	 26.300	 99.273	  1.226
59268	 -0.080	 -0.064	  0.377	 -1.570	 -1.136	 -9.825	 -0.253	  0.300	 -1.469	 26.300	 99.284	  0.241
59318	 -0.084	 -0.073	  0.383	 -1.638	 -1.049	 -9.772	 -0.251	  0.222	 -1.399	 26.300	 99.289	 -0.207
59368	 -0.088	 -0.090	  0.379	 -1.702	 -0.999	 -9.711	 -0.206	  0.152	 -1.350	 26.300	 99.277	  0.868
59418	 -0.089	 -0.106	  0.376	 -1.806	 -0.996	 -9.548	 -0.156	  0.108	 -1.267	 26.300	 99.284	  0.241
59468	 -0.085	 -0.119	  0.375	 -1.860	 -0.935	 -9.537	 -0.102	  0.097	 -1.220	 26.300	 99.273	  1.226
59518	 -0.083	 -0.131	  0.368	 -1.735	 -0.917	 -9.613	 -0.081	  0.056	 -1.191	 26.300	 99.277	  0.868
59568	 -0.081	 -0.140	  0.370	 -1.577	 -0.723	 -9.668	 -0.151	 -0.026	 -1.135	 26.300	 99.289	 -0.207
59618	 -0.070	 -0.143	  0.368	 -1.474	 -0.329	 -9.657	 -0.142	 -0.175	 -1.138	 26.300	 99.277	  0.868
59668	 -0.058	 -0.160	  0.373	 -1.580	 -0.450	 -9.702	 -0.042	 -0.013	 -1.135	 26.300	 99.277	  0.868
59718	 -0.055	 -0.171	  0.365	 -1.376	 -0.432	 -9.317	  0.033	  0.051	 -1.197	 26.300	 99.289	 -0.207
59768	 -0.047	 -0.169	  0.368	 -1.444	 -0.552	 -9.667	  0.137	 -0.004	 -0.856	 26.300	 99.277	  0.868
59818	 -0.039	 -0.175	  0.372	 -0.619	 -0.471	 -10.502	 -0.136	 -0.001	 -1.158	 26.300	 99.277	  0.868
59868	 -0.031	 -0.190	  0.366	 -0.143	  0.212	 -9.927	 -0.296	 -0.130	 -1.364	 26.300	 99.277	  0.868
59918	 -0.019	 -0.189	  0.376	 -0.988	  0.841	 -8.941	  0.114	 -0.194	 -0.896	 26.300	 99.284	  0.241
59968	 -0.015	 -0.189	  0.378	 -1.665	  0.013	 -9.092	  0.272	 -0.142	 -0.651	 26.300	 99.273	  1.226
60018	 -0.013	 -0.194	  0.381	 -1.693	 -0.404	 -9.358	 -0.024	  0.117	 -0.749	 26.300	 99.273	  1.226
60068	 -0.014	 -0.206	  0.378	 -1.677	 -0.149	 -9.253	 -0.210	  0.064	 -0.842	 26.300	 99.273	  1.226
60118	 -0.013	 -0.214	  0.378	 -1.828	 -0.164	 -9.283	 -0.162	 -0.007	 -0.635	 26.300	 99.289	 -0.207
60168	 -0.012	 -0.218	  0.373	 -2.118	 -0.341	 -9.315	 -0.036	  0.023	 -0.579	 26.300	 99.289	 -0.207
60218	 -0.012	 -0.218	  0.371	 -2.144	 -0.443	 -9.524	  0.000	  0.141	 -0.454	 26.300	 99.277	  0.868
60268	 -0.013	 -0.214	  0.365	 -2.109	 -0.509	 -9.386	  0.098	 -0.093	 -0.234	 26.300	 99.289	 -0.207
60318	 -0.011	 -0.216	  0.368	 -1.886	 -1.057	 -9.957	  0.164	 -0.159	  0.018	 26.300	 99.277	  0.868
60368	 -0.012	 -0.215	  0.367	 -1.287	 -1.093	 -10.915	 -0.144	  0.007	 -0.009	 26.300	 99.277	  0.868
60418	 -0.014	 -0.236	  0.361	 -0.081	 -0.688	 -11.357	 -0.617	  0.244	 -0.551	 26.300	 99.277	  0.868
60468	 -0.011	 -0.250	  0.363	 -0.291	  0.390	 -9.407	  0.039	 -0.121	 -0.341	 26.300	 99.277	  0.868
60518	 -0.007	 -0.247	  0.373	 -0.313	 -0.579	 -9.465	  0.346	 -0.063	  0.026	 26.300	 99.277	  0.868
60568	 -0.002	 -0.228	  0.382	  0.374	 -1.032	 -9.810	  0.020	  0.204	 -0.650	 26.300	 99.266	  1.853
60618	 -0.001	 -0.237	  0.388	  0.252	  0.007	 -8.043	 -0.014	  0.088	 -0.621	 26.300	 99.266	  1.853
60668	 -0.002	 -0.232	  0.390	  0.031	 -0.412	 -8.340	  0.117	 -0.060	 -0.193	 26.300	 99.277	  0.868
60718	 -0.006	 -0.222	  0.392	 -0.456	 -0.852	 -8.673	  0.038	 -0.014	 -0.299	 26.300	 99.289	 -0.207
60768	 -0.005	 -0.219	  0.389	 -0.667	 -1.072	 -9.097	 -0.039	  0.097	 -0.540	 26.300	 99.266	  1.853
60818	 -0.011	 -0.205	  0.387	 -0.546	 -1.059	 -9.372	  0.020	  0.249	 -0.683	 26.300	 99.277	  0.868
60868	 -0.014	 -0.198	  0.387	 -0.602	 -1.196	 -9.507	  0.268	  0.251	 -0.616	 26.300	 99.277	  0.868
60918	 -0.020	 -0.180	  0.384	 -0.805	 -1.652	 -9.712	  0.385	  0.182	 -0.533	 26.300	 99.277	  0.868
60968	 -0.022	 -0.171	  0.393	 -0.738	 -1.878	 -10.082	  0.313	  0.069	 -0.571	 26.400	 99.293	 -0.565
61018	 -0.014	 -0.159	  0.394	 -0.730	 -1.379	 -9.595	  0.176	 -0.189	 -0.659	 26.300	 99.277	  0.868
61068	 -0.012	 -0.152	  0.393	 -0.155	 -0.863	 -10.093	  0.235	  0.228	 -0.903	 26.300	 99.277	  0.868
61118	 -0.011	 -0.136	  0.401	 -0.049	 -1.975	 -10.431	  0.227	  0.441	 -1.051	 26.300	 99.289	 -0.207
61168	 -0.018	 -0.134	  0.403	  0.922	 -0.976	 -10.332	 -0.036	  0.295	 -0.881	 26.300	 99.277	  0.868
61218	 -0.020	 -0.129	  0.399	  1.321	 -1.321	 -10.779	 -0.191	  0.187	 -0.997	 26.300	 99.266	  1.853
61268	 -0.014	 -0.139	  0.397	  0.876	 -0.949	 -9.943	 -0.171	 -0.157	 -0.765	 26.300	 99.277	  0.868
61318	 -0.004	 -0.135	  0.407	  0.338	 -0.843	 -9.544	 -0.199	 -0.320	 -0.354	 26.400	 99.293	 -0.565
61368	 -0.000	 -0.138	  0.409	 -0.141	 -0.886	 -9.533	 -0.217	 -0.095	 -0.618	 26.300	 99.277	  0.868
61418	  0.004	 -0.142	  0.413	 -0.098	 -0.936	 -9.665	 -0.339	  0.134	 -0.896	 26.400	 99.293	 -0.565
61468	  0.003	 -0.143	  0.410	  0.124	 -0.335	 -9.546	 -0.439	  0.169	 -0.879	 26.400	 99.282	  0.420
61518	  0.005	 -0.148	  0.408	  0.118	 -0.598	 -9.497	 -0.243	  0.190	 -0.809	 26.400	 99.282	  0.420
61568	  0.010	 -0.142	  0.410	  0.742	 -0.331	 -9.297	 -0.373	 -0.111	 -0.741	 26.400	 99.293	 -0.565
61618	  0.018	 -0.145	  0.408	  0.336	  0.207	 -8.489	 -0.257	 -0.476	 -0.489	 26.400	 99.282	  0.420
61668	  0.032	 -0.147	  0.404	 -0.136	 -0.341	 -9.037	 -0.121	 -0.633	 -0.143	 26.400	 99.282	  0.420
61718	  0.048	 -0.143	  0.405	 -0.110	 -0.393	 -9.417	 -0.033	 -0.698	 -0.077	 26.300	 99.277	  0.868
61768	  0.068	 -0.138	  0.403	 -0.128	 -0.222	 -9.668	  0.026	 -1.008	 -0.057	 26.400	 99.282	  0.420
61818	  0.095	 -0.136	  0.395	 -1.465	  0.217	 -9.918	  0.294	 -1.285	  0.345	 26.400	 99.282	  0.420
61868	  0.120	 -0.116	  0.395	 -1.504	 -0.313	 -11.205	  0.311	 -0.820	  0.210	 26.400	 99.282	  0.420
61918	  0.131	 -0.119	  0.391	 -1.419	  0.032	 -10.513	 -0.144	 -0.336	 -0.633	 26.400	 99.282	  0.420
61968	  0.139	 -0.113	  0.386	 -1.596	  0.885	 -9.013	  0.165	 -0.269	 -0.384	 26.400	 99.282	  0.420
62018	  0.146	 -0.105	  0.386	 -1.218	 -0.154	 -9.200	  0.389	 -0.125	 -0.366	 26.300	 99.266	  1.853
62068	  0.147	 -0.102	  0.386	 -1.131	  0.315	 -9.088	  0.006	  0.108	 -0.438	 26.300	 99.266	  1.853
62119	  0.142	 -0.098	  0.381	 -1.291	  0.401	 -9.003	 -0.121	  0.237	 -0.451	 26.400	 99.271	  1.405
62168	  0.143	 -0.100	  0.385	 -1.079	 -0.123	 -8.706	 -0.291	  0.227	 -0.858	 26.400	 99.282	  0.420
62218	  0.141	 -0.097	  0.377	 -0.858	 -0.161	 -8.784	 -0.405	  0.254	 -1.003	 26.400	 99.282	  0.420
62268	  0.141	 -0.102	  0.384	 -0.811	 -0.132	 -9.084	 -0.353	  0.325	 -1.155	 26.400	 99.271	  1.405
62318	  0.135	 -0.098	  0.380	 -0.755	 -0.121	 -9.274	 -0.266	  0.417	 -1.268	 26.400	 99.293	 -0.565
62368	  0.131	 -0.108	  0.381	 -0.686	 -0.334	 -9.788	 -0.261	  0.520	 -1.331	 26.400	 99.293	 -0.565
62418	  0.127	 -0.102	  0.381	 -0.508	 -0.481	 -10.198	 -0.234	  0.358	 -1.452	 26.400	 99.293	 -0.565
62468	  0.125	 -0.100	  0.379	 -0.129	 -0.271	 -10.441	 -0.224	  0.194	 -1.410	 26.400	 99.282	  0.420
62518	  0.129	 -0.092	  0.380	  0.262	 -0.069	 -10.563	 -0.173	 -0.094	 -1.534	 26.400	 99.293	 -0.565
62568	  0.137	 -0.082	  0.375	  0.156	 -0.025	 -10.510	 -0.004	 -0.119	 -1.673	 26.400	 99.282	  0.420
62618	  0.139	 -0.066	  0.377	 -0.423	 -0.475	 -9.769	  0.148	  0.049	 -1.583	 26.400	 99.271	  1.405
62668	  0.136	 -0.053	  0.375	  0.066	 -0.964	 -10.835	  0.010	  0.408	 -1.490	 26.400	 99.297	 -0.923
62718	  0.128	 -0.049	  0.373	  0.754	 -0.119	 -10.453	 -0.230	  0.188	 -1.471	 26.400	 99.271	  1.405
62769	  0.127	 -0.030	  0.378	  0.601	  1.147	 -8.577	 -0.062	 -0.157	 -1.098	 26.400	 99.282	  0.420
62818	  0.134	 -0.033	  0.374	 -0.100	  0.790	 -8.432	  0.214	 -0.310	 -0.624	 26.400	 99.282	  0.420
62869	  0.140	 -0.020	  0.373	 -0.490	 -0.110	 -9.356	  0.005	 -0.118	 -0.639	 26.400	 99.271	  1.405
62919	  0.135	 -0.021	  0.377	 -0.671	  0.612	 -9.126	 -0.391	  0.131	 -0.858	 26.400	 99.282	  0.420
62969	  0.132	 -0.018	  0.377	 -0.377	  1.044	 -9.119	 -0.249	  0.127	 -1.097	 26.400	 99.293	 -0.565
63019	  0.130	 -0.022	  0.378	 -0.543	  0.217	 -9.250	 -0.069	  0.181	 -1.089	 26.400	 99.282	  0.420
63069	  0.124	 -0.008	  0.382	 -0.818	 -0.236	 -9.247	 -0.143	  0.235	 -1.006	 26.400	 99.297	 -0.923
63119	  0.115	 -0.018	  0.385	 -0.954	 -0.694	 -9.360	 -0.073	  0.192	 -0.943	 26.400	 99.282	  0.420
63169	  0.112	 -0.012	  0.382	 -1.033	 -1.184	 -9.514	  0.051	  0.170	 -0.843	 26.400	 99.282	  0.420
63219	  0.108	 -0.009	  0.389	 -1.102	 -1.247	 -9.563	  0.141	  0.112	 -0.644	 26.400	 99.286	  0.061
63269	  0.104	 -0.001	  0.389	 -1.069	 -1.319	 -9.710	  0.344	  0.091	 -0.469	 26.400	 99.282	  0.420
63319	  0.100	  0.005	  0.389	 -0.955	 -1.084	 -9.930	  0.478	  0.107	 -0.336	 26.400	 99.282	  0.420
63369	  0.101	  0.011	  0.393	 -1.067	 -1.137	 -9.836	  0.708	 -0.138	 -0.154	 26.400	 99.275	  1.047
63419	  0.106	  0.025	  0.385	 -1.461	 -1.816	 -9.448	  0.896	 -0.341	  0.122	 26.400	 99.286	  0.061
63469	  0.108	  0.041	  0.386	 -0.548	 -2.519	 -10.106	  0.736	 -0.069	 -0.085	 26.400	 99.271	  1.405
63519	  0.099	  0.049	  0.392	  0.516	 -1.369	 -11.069	  0.268	  0.678	 -0.449	 26.400	 99.282	  0.420
63569	  0.075	  0.050	  0.403	  2.173	 -0.883	 -10.985	  0.168	  0.605	 -0.838	 26.400	 99.275	  1.047
63619	  0.065	  0.058	  0.403	  1.943	  0.270	 -9.350	  0.154	  0.207	 -0.481	 26.400	 99.286	  0.061
63669	  0.066	  0.068	  0.404	  1.926	 -0.625	 -8.963	  0.215	 -0.316	 -0.168	 26.400	 99.282	  0.420
63719	  0.075	  0.089	  0.401	  1.415	 -1.462	 -9.276	  0.079	 -0.509	 -0.234	 26.400	 99.275	  1.047
63769	  0.087	  0.100	  0.400	  0.618	 -2.039	 -9.167	 -0.197	 -0.363	 -0.329	 26.400	 99.275	  1.047
63819	  0.095	  0.105	  0.394	 -0.152	 -1.952	 -8.907	 -0.238	 -0.135	 -0.366	 26.400	 99.282	  0.420
63869	  0.096	  0.111	  0.389	  0.009	 -2.373	 -9.333	 -0.117	  0.219	 -0.466	 26.400	 99.286	  0.061
63919	  0.088	  0.118	  0.389	  0.381	 -2.374	 -9.376	 -0.101	  0.262	 -0.482	 26.400	 99.286	  0.061
63969	  0.080	  0.114	  0.384	  0.581	 -2.613	 -9.514	 -0.000	  0.077	 -0.377	 26.400	 99.286	  0.061
64019	  0.084	  0.118	  0.384	  0.197	 -2.511	 -9.234	 -0.012	 -0.087	 -0.155	 26.400	 99.282	  0.420
64069	  0.086	  0.125	  0.380	 -0.165	 -2.474	 -9.177	 -0.004	 -0.119	 -0.121	 26.400	 99.275	  1.047
64119	  0.089	  0.130	  0.381	 -0.286	 -2.410	 -9.109	  0.080	 -0.022	 -0.098	 26.400	 99.282	  0.420
64169	  0.090	  0.125	  0.373	 -0.405	 -2.468	 -9.054	  0.292	 -0.074	  0.045	 26.400	 99.264	  2.032
64219	  0.091	  0.131	  0.372	 -0.204	 -2.699	 -9.896	  0.360	  0.014	  0.089	 26.400	 99.286	  0.061
64269	  0.094	  0.145	  0.366	 -0.018	 -2.012	 -10.059	  0.317	 -0.075	  0.028	 26.400	 99.286	  0.061
64319	  0.095	  0.137	  0.364	 -0.269	 -2.331	 -9.333	  0.446	 -0.157	 -0.090	 26.400	 99.271	  1.405
64369	  0.094	  0.142	  0.364	  0.240	 -3.201	 -10.057	  0.071	  0.073	 -0.239	 26.400	 99.275	  1.047
64419	  0.090	  0.146	  0.372	  1.310	 -1.812	 -9.718	 -0.179	 -0.069	 -0.176	 26.400	 99.275	  1.047
64469	  0.092	  0.137	  0.369	  1.441	 -1.548	 -9.390	 -0.101	 -0.230	 -0.154	 26.400	 99.275	  1.047
64519	  0.098	  0.135	  0.370	  0.602	 -2.326	 -9.224	 -0.055	 -0.268	  0.108	 26.400	 99.290	 -0.297
64569	  0.105	  0.129	  0.372	  0.445	 -2.291	 -10.084	 -0.212	  0.134	  0.163	 26.400	 99.286	  0.061
64619	  0.100	  0.131	  0.381	  0.799	 -2.110	 -9.886	 -0.221	  0.208	  0.012	 26.400	 99.275	  1.047
64669	  0.098	  0.117	  0.379	  0.917	 -2.155	 -9.453	 -0.275	  0.114	  0.281	 26.400	 99.286	  0.061
64719	  0.100	  0.114	  0.384	  0.728	 -2.243	 -9.351	 -0.296	  0.118	  0.343	 26.400	 99.275	  1.047
64769	  0.106	  0.114	  0.392	  0.542	 -2.035	 -8.841	 -0.375	  0.021	  0.449	 26.400	 99.286	  0.061
64819	  0.108	  0.108	  0.390	  0.073	 -2.028	 -8.562	 -0.306	  0.013	  0.572	 26.400	 99.275	  1.047
64869	  0.116	  0.092	  0.396	 -0.168	 -1.908	 -8.633	 -0.275	  0.110	  0.569	 26.400	 99.275	  1.047
64919	  0.115	  0.083	  0.383	 -0.381	 -1.573	 -8.821	 -0.269	  0.130	  0.570	 26.400	 99.275	  1.047
64969	  0.116	  0.075	  0.391	 -0.557	 -1.222	 -9.122	 -0.208	  0.148	  0.563	 26.400	 99.275	  1.047
65019	  0.113	  0.062	  0.388	 -0.347	 -1.311	 -9.763	 -0.341	  0.198	  0.298	 26.400	 99.275	  1.047
65069	  0.111	  0.050	  0.395	  0.009	 -0.881	 -9.900	 -0.416	  0.133	  0.108	 26.400	 99.286	  0.061
65119	  0.108	  0.036	  0.389	 -0.157	 -1.036	 -10.051	 -0.168	 -0.019	  0.156	 26.400	 99.286	  0.061
65169	  0.114	  0.030	  0.387	  0.002	 -1.535	 -10.597	 -0.018	  0.047	  0.182	 26.400	 99.275	  1.047
65219	  0.114	  0.025	  0.390	  0.617	 -1.439	 -10.272	 -0.171	  0.038	  0.038	 26.400	 99.286	  0.061
65269	  0.114	  0.015	  0.398	  0.695	 -1.723	 -10.287	 -0.106	 -0.031	  0.332	 26.400	 99.286	  0.061
65319	  0.116	  0.014	  0.403	  1.389	 -1.969	 -10.601	 -0.314	  0.116	  0.324	 26.400	 99.279	  0.689
65369	  0.117	 -0.011	  0.397	  1.658	 -1.052	 -10.092	 -0.527	 -0.015	  0.452	 26.400	 99.279	  0.689
65419	  0.122	 -0.021	  0.402	  1.267	 -0.274	 -9.189	 -0.405	 -0.182	  0.694	 26.400	 99.279	  0.689
65469	  0.127	 -0.027	  0.401	  0.968	 -0.568	 -8.814	 -0.214	 -0.322	  0.904	 26.400	 99.279	  0.689
65519	  0.138	 -0.058	  0.406	  0.336	 -0.486	 -8.435	 -0.203	 -0.375	  1.027	 26.400	 99.279	  0.689
65569	  0.145	 -0.066	  0.400	 -0.069	 -0.698	 -8.964	 -0.228	 -0.270	  0.907	 26.400	 99.275	  1.047
65619	  0.149	 -0.083	  0.397	 -0.339	 -0.410	 -9.551	 -0.245	 -0.213	  0.805	 26.400	 99.275	  1.047
65669	  0.155	 -0.100	  0.393	 -0.450	 -0.641	 -9.592	 -0.245	 -0.281	  0.837	 26.400	 99.279	  0.689
65719	  0.158	 -0.117	  0.396	 -0.816	  0.033	 -9.432	 -0.341	 -0.421	  0.959	 26.400	 99.290	 -0.297
65769	  0.171	 -0.127	  0.391	 -1.145	 -0.091	 -9.747	 -0.074	 -0.701	  0.833	 26.400	 99.290	 -0.297
65819	  0.181	 -0.140	  0.386	 -0.996	  0.115	 -10.238	 -0.134	 -0.510	  0.648	 26.400	 99.279	  0.689
65869	  0.192	 -0.147	  0.380	 -1.301	  0.866	 -10.193	 -0.145	 -0.633	  0.569	 26.400	 99.290	 -0.297
65919	  0.199	 -0.154	  0.376	 -0.102	  0.580	 -11.801	 -0.055	  0.185	  0.195	 26.400	 99.290	 -0.297
65969	  0.189	 -0.174	  0.380	  0.609	  0.166	 -10.013	 -0.272	  0.645	 -0.494	 26.400	 99.290	 -0.297
66019	  0.183	 -0.179	  0.380	  1.608	  1.043	 -10.872	 -0.731	  0.512	  0.039	 26.400	 99.279	  0.689
66069	  0.174	 -0.205	  0.374	  1.703	  2.891	 -9.580	 -1.257	  0.298	  0.130	 26.400	 99.279	  0.689
66119	  0.173	 -0.227	  0.365	  1.092	  3.650	 -7.649	 -0.529	 -0.374	  0.380	 26.400	 99.279	  0.689
66169	  0.183	 -0.235	  0.364	  0.166	  2.461	 -7.846	  0.197	 -1.105	  1.108	 26.400	 99.268	  1.674
66219	  0.202	 -0.247	  0.354	 -0.528	  1.853	 -8.413	  0.545	 -1.337	  1.675	 26.400	 99.294	 -0.655
66269	  0.214	 -0.256	  0.344	 -1.253	  1.120	 -8.285	  0.796	 -1.092	  1.863	 26.400	 99.279	  0.689
66319	  0.222	 -0.254	  0.347	 -1.941	 -0.171	 -9.316	  0.681	 -0.561	  1.460	 26.400	 99.268	  1.674
66369	  0.228	 -0.261	  0.343	 -1.588	  1.099	 -9.360	  0.088	 -0.062	  0.910	 26.400	 99.279	  0.689
66419	  0.238	 -0.270	  0.336	 -1.179	  1.502	 -9.317	  0.267	 -0.082	  0.862	 26.400	 99.290	 -0.297
66469	  0.252	 -0.295	  0.324	 -0.964	  1.046	 -9.670	  0.389	 -0.323	  0.879	 26.400	 99.279	  0.689
66519	  0.281	 -0.329	  0.306	 -1.845	  1.508	 -8.908	  0.555	 -0.515	  1.078	 26.400	 99.279	  0.689
66569	  0.304	 -0.382	  0.292	 -1.327	  0.452	 -10.090	  0.413	 -0.078	  0.769	 26.400	 99.290	 -0.297
66619	  0.320	 -0.475	  0.262	 -1.255	  1.332	 -7.924	  0.124	 -0.311	  0.634	 26.400	 99.290	 -0.297
66669	  0.299	 -0.589	  0.230	 -0.984	  0.933	 -7.595	  0.382	 -0.190	  1.028	 26.400	 99.279	  0.689
66719	  0.217	 -0.732	  0.240	 -1.574	  0.149	 -6.721	  0.102	 -0.365	  0.552	 26.400	 99.290	 -0.297
66769	  0.097	 -0.800	  0.310	 -1.088	  0.299	 -7.355	 -0.123	  0.095	  0.470	 26.400	 99.279	  0.689
66819	 -0.016	 -0.741	  0.420	 -0.898	  0.289	 -7.205	 -0.298	  0.119	  0.165	 26.400	 99.283	  0.331
66869	 -0.040	 -0.589	  0.504	 -0.366	  1.205	 -6.535	  0.064	 -0.054	  0.610	 26.400	 99.279	  0.689
66919	 -0.024	 -0.477	  0.521	 -0.383	  0.821	 -9.003	 -0.222	  0.667	  0.194	 26.400	 99.279	  0.689
66969	  0.001	 -0.402	  0.515	  0.386	  2.273	 -8.230	 -0.578	  0.567	  0.252	 26.400	 99.279	  0.689
67019	  0.007	 -0.382	  0.492	  1.073	  2.880	 -11.285	 -0.794	  1.030	 -0.044	 26.400	 99.279	  0.689
67069	  0.016	 -0.358	  0.482	  1.477	  3.515	 -9.775	  0.059	  0.824	 -0.232	 26.400	 99.283	  0.331
67119	  0.020	 -0.330	  0.481	  1.279	  2.543	 -11.035	  0.234	  0.970	 -0.128	 26.400	 99.290	 -0.297
67169	  0.019	 -0.321	  0.468	  1.716	  1.794	 -11.795	 -0.575	  1.082	 -0.410	 26.400	 99.290	 -0.297
67219	  0.013	 -0.314	  0.459	  1.921	  2.335	 -10.637	 -0.186	  0.804	 -0.115	 26.400	 99.283	  0.331
67269	  0.014	 -0.313	  0.453	  2.086	  2.560	 -10.694	 -0.118	  0.759	 -0.166	 26.400	 99.294	 -0.655
67319	  0.002	 -0.301	  0.442	  2.109	  2.799	 -10.534	  0.302	  1.563	 -0.281	 26.400	 99.279	  0.689
67369	 -0.018	 -0.277	  0.443	  2.309	  2.151	 -9.523	  0.412	  0.892	 -0.480	 26.400	 99.283	  0.331
67419	 -0.017	 -0.261	  0.442	  1.677	  2.683	 -9.986	  0.095	  0.336	 -0.118	 26.400	 99.283	  0.331
67469	 -0.026	 -0.250	  0.438	  1.675	  2.906	 -8.888	 -0.438	  0.614	  0.296	 26.400	 99.294	 -0.655
67519	 -0.024	 -0.265	  0.420	  1.632	  2.891	 -9.177	 -0.080	 -0.005	 -0.140	 26.400	 99.283	  0.331
67569	 -0.019	 -0.262	  0.414	  1.983	  2.334	 -9.660	  0.335	  0.149	 -0.246	 26.400	 99.279	  0.689
67619	 -0.014	 -0.258	  0.413	  2.388	  1.468	 -8.979	  0.031	  0.029	 -0.423	 26.400	 99.283	  0.331
67669	 -0.010	 -0.264	  0.398	  3.325	  1.321	 -9.059	 -0.181	  0.340	 -0.379	 26.400	 99.290	 -0.297
67719	 -0.018	 -0.278	  0.380	  3.954	  1.240	 -9.279	 -0.755	  0.449	 -0.322	 26.400	 99.294	 -0.655
67769	 -0.032	 -0.295	  0.362	  3.769	  2.667	 -9.171	 -0.989	  0.676	 -0.201	 26.400	 99.268	  1.674
67819	 -0.040	 -0.321	  0.336	  3.446	  3.699	 -8.367	 -0.766	  0.124	 -0.402	 26.400	 99.283	  0.331
67869	 -0.042	 -0.331	  0.320	  3.103	  4.395	 -8.116	 -0.444	  0.439	 -0.327	 26.400	 99.279	  0.689
67919	 -0.050	 -0.343	  0.303	  3.270	  4.437	 -7.922	 -0.617	  0.470	 -0.278	 26.400	 99.294	 -0.655
67970	 -0.045	 -0.344	  0.296	  7.371	  7.915	 -0.173	  0.601	 -1.126	 -0.518	 26.400	 99.283	  0.331
68019	 -0.027	 -0.340	  0.301	  2.870	  4.354	 -9.320	  0.293	 -0.237	  0.024	 26.400	 99.290	 -0.297
68070	 -0.026	 -0.330	  0.295	  3.343	  3.444	 -8.995	  0.115	 -0.178	 -0.134	 26.400	 99.294	 -0.655
68119	 -0.013	 -0.330	  0.301	  2.552	  3.512	 -7.839	  0.195	 -0.501	 -0.430	 26.400	 99.294	 -0.655
68169	  0.001	 -0.337	  0.297	  2.595	  3.163	 -8.240	 -0.474	 -0.391	 -0.607	 26.400	 99.283	  0.331
68219	  0.024	 -0.342	  0.293	  1.723	  4.869	 -9.582	 -0.366	 -0.590	 -0.490	 26.400	 99.287	 -0.028
68269	  0.034	 -0.337	  0.290	  1.212	  5.508	 -8.696	  0.202	  0.103	 -0.108	 26.400	 99.283	  0.331
68320	  0.035	 -0.336	  0.290	  1.417	  4.133	 -8.112	  0.042	 -0.351	 -0.044	 26.400	 99.283	  0.331
68370	  0.046	 -0.331	  0.289	 -0.050	  4.295	 -8.165	  0.247	 -0.555	 -0.305	 26.400	 99.290	 -0.297
68420	  0.054	 -0.318	  0.295	  0.634	  3.619	 -10.866	  0.101	  0.205	 -0.137	 26.400	 99.272	  1.315
68471	  0.053	 -0.327	  0.290	  2.496	  3.500	 -8.253	 -0.634	 -0.486	 -0.302	 26.400	 99.283	  0.331
68521	  0.072	 -0.333	  0.283	  1.181	  4.739	 -9.596	 -0.295	 -0.527	 -0.132	 26.400	 99.283	  0.331
68571	  0.065	 -0.333	  0.281	  0.800	  5.208	 -7.511	  0.401	 -0.247	  0.515	 26.400	 99.283	  0.331
68621	  0.066	 -0.314	  0.292	  0.692	  4.098	 -9.016	  0.536	 -0.365	  0.675	 26.400	 99.290	 -0.297
68671	  0.064	 -0.317	  0.284	  0.256	  3.885	 -8.657	 -0.104	 -0.072	  0.077	 26.400	 99.294	 -0.655
68721	  0.068	 -0.316	  0.284	  0.377	  4.205	 -8.262	 -0.553	  0.021	 -0.112	 26.400	 99.283	  0.331
68771	  0.069	 -0.320	  0.287	 -0.337	  5.172	 -9.127	 -0.311	  0.174	  0.006	 26.400	 99.283	  0.331
68821	  0.067	 -0.323	  0.281	  0.137	  4.178	 -8.717	  0.087	  0.061	  0.423	 26.400	 99.287	 -0.028
68871	  0.058	 -0.320	  0.278	  0.875	  3.996	 -9.031	  0.070	 -0.122	  0.786	 26.400	 99.294	 -0.655
68921	  0.048	 -0.330	  0.275	  0.369	  3.461	 -8.966	 -0.030	 -0.433	  0.978	 26.400	 99.287	 -0.028
68971	  0.040	 -0.337	  0.278	  1.549	  3.526	 -9.005	 -0.325	 -0.441	  0.864	 26.400	 99.283	  0.331
69021	  0.030	 -0.345	  0.270	  1.394	  3.993	 -8.008	 -0.391	 -0.623	  0.972	 26.400	 99.283	  0.331
69071	  0.027	 -0.345	  0.267	  0.482	  5.273	 -8.001	  0.120	 -0.753	  0.909	 26.400	 99.299	 -1.102
69121	  0.026	 -0.348	  0.261	 -0.297	  4.132	 -8.541	 -0.060	 -0.536	  0.639	 26.400	 99.294	 -0.655
69171	  0.029	 -0.347	  0.267	  0.297	  4.984	 -7.860	 -0.050	 -0.290	  0.291	 26.400	 99.294	 -0.655
69221	  0.029	 -0.347	  0.273	  1.280	  3.893	 -8.036	  0.550	 -0.444	 -0.263	 26.400	 99.283	  0.331
69271	  0.043	 -0.332	  0.271	 -0.038	  3.705	 -8.764	  0.427	  0.200	 -0.290	 26.400	 99.272	  1.315
69321	  0.044	 -0.322	  0.279	  0.291	  4.637	 -9.087	  0.538	  0.053	 -0.510	 26.400	 99.287	 -0.028
69371	  0.050	 -0.306	  0.287	 -0.394	  3.720	 -7.743	  0.819	  0.450	 -0.502	 26.400	 99.283	  0.331
69421	  0.052	 -0.278	  0.302	  0.084	  3.951	 -9.477	  1.468	  0.105	 -0.464	 26.400	 99.287	 -0.028
69471	  0.054	 -0.255	  0.308	  0.782	  1.285	 -10.580	  0.768	  0.197	 -0.188	 26.400	 99.276	  0.957
69521	  0.057	 -0.242	  0.308	 -0.371	  2.423	 -9.613	  0.254	  0.071	 -0.321	 26.400	 99.299	 -1.102
69571	  0.058	 -0.235	  0.314	  0.582	  1.397	 -11.214	  0.666	  0.015	 -0.297	 26.400	 99.276	  0.957
69621	  0.058	 -0.187	  0.329	 -0.019	  0.886	 -8.575	  4.922	  0.056	 -0.483	 26.400	 99.287	 -0.028
69671	  0.058	 -0.166	  0.329	  1.577	  0.506	 -7.556	  0.362	 -0.166	  0.292	 26.400	 99.287	 -0.028
69721	  0.056	 -0.156	  0.329	 -0.010	  0.503	 -9.381	  0.309	 -0.055	 -0.068	 26.400	 99.272	  1.315
69771	  0.056	 -0.151	  0.329	  0.918	  0.247	 -11.080	  0.345	  0.014	  0.007	 26.400	 99.294	 -0.655
69821	  0.060	 -0.151	  0.330	  0.255	 -0.132	 -9.799	 -0.006	  0.004	  0.004	 26.400	 99.287	 -0.028
69871	  0.060	 -0.154	  0.333	  0.155	 -0.048	 -9.646	 -0.005	  0.003	  0.006	 26.400	 99.283	  0.331
69921	  0.061	 -0.152	  0.331	  0.124	 -0.048	 -9.609	 -0.003	  0.002	  0.004	 26.400	 99.276	  0.957
69971	  0.059	 -0.156	  0.331	  0.171	 -0.008	 -9.663	 -0.003	  0.003	  0.004	 26.400	 99.287	 -0.028
70021	  0.062	 -0.147	  0.330	  0.172	 -0.050	 -9.688	 -0.003	  0.003	  0.006	 26.400	 99.283	  0.331
70071	  0.061	 -0.151	  0.332	  0.154	 -0.010	 -9.664	 -0.002	  0.003	  0.004	 26.400	 99.287	 -0.028
70121	  0.062	 -0.148	  0.326	  0.175	 -0.034	 -9.685	 -0.002	  0.002	  0.005	 26.400	 99.287	 -0.028
70171	  0.059	 -0.145	  0.331	  0.157	 -0.076	 -9.652	 -0.004	  0.002	  0.003	 26.400	 99.272	  1.315
70221	  0.059	 -0.154	  0.330	  0.164	  0.025	 -9.661	 -0.003	  0.002	  0.005	 26.400	 99.287	 -0.028
70271	  0.060	 -0.156	  0.331	  0.184	 -0.034	 -9.636	 -0.003	  0.003	  0.005	 26.400	 99.287	 -0.028
70321	  0.059	 -0.150	  0.331	  0.143	 -0.025	 -9.644	  0.002	  0.003	  0.002	 26.400	 99.287	 -0.028
70371	  0.059	 -0.150	  0.324	  0.159	 -0.034	 -9.596	 -0.007	  0.001	  0.004	 26.400	 99.287	 -0.028
70421	  0.060	 -0.150	  0.332	  0.155	 -0.006	 -9.653	 -0.005	  0.003	  0.004	 26.400	 99.287	 -0.028
70471	  0.061	 -0.151	  0.331	 -0.016	 -0.016	 -9.798	  0.002	  0.008	  0.006	 26.400	 99.303	 -1.460
70521	  0.059	 -0.154	  0.330	  0.150	  0.010	 -9.737	 -0.000	  0.003	  0.006	 26.400	 99.299	 -1.102
70571	  0.060	 -0.154	  0.324	  0.156	 -0.017	 -9.608	 -0.006	  0.004	  0.004	 26.400	 99.287	 -0.028
70621	  0.061	 -0.157	  0.331	  0.170	 -0.021	 -9.564	 -0.004	  0.003	  0.006	 26.400	 99.287	 -0.028
70671	  0.061	 -0.153	  0.329	  0.159	 -0.076	 -9.596	 -0.002	  0.002	  0.003	 26.400	 99.287	 -0.028
70721	  0.061	 -0.155	  0.330	  0.158	  0.059	 -9.632	 -0.002	  0.002	  0.005	 26.400	 99.287	 -0.028
70771	  0.058	 -0.154	  0.326	  0.185	 -0.103	 -9.684	 -0.002	  0.004	  0.006	 26.400	 99.287	 -0.028
70821	  0.059	 -0.155	  0.331	  0.157	 -0.009	 -9.654	 -0.003	  0.003	  0.003	 26.400	 99.283	  0.331
70871	  0.058	 -0.152	  0.330	  0.167	  0.009	 -9.633	 -0.003	  0.002	  0.007	 26.400	 99.287	 -0.028
70921	  0.061	 -0.150	  0.333	  0.163	 -0.105	 -9.654	 -0.003	  0.002	  0.004	 26.400	 99.292	 -0.476
70971	  0.060	 -0.154	  0.331	  0.170	  0.007	 -9.609	 -0.003	  0.003	  0.005	 26.400	 99.287	 -0.028
71021	  0.061	 -0.142	  0.328	  0.181	 -0.041	 -9.690	 -0.002	  0.002	  0.005	 26.400	 99.287	 -0.028
71071	  0.059	 -0.156	  0.331	  0.158	 -0.013	 -9.637	 -0.004	  0.002	  0.002	 26.400	 99.287	 -0.028
71121	  0.058	 -0.155	  0.331	  0.203	  0.106	 -9.584	 -0.003	  0.003	  0.007	 26.400	 99.292	 -0.476
71171	  0.061	 -0.154	  0.324	  0.173	 -0.132	 -9.615	 -0.002	  0.003	  0.005	 26.400	 99.299	 -1.102
71221	  0.060	 -0.152	  0.331	  0.145	  0.059	 -9.620	 -0.004	  0.003	  0.003	 26.400	 99.287	 -0.028
71271	  0.058	 -0.151	  0.333	  0.179	 -0.068	 -9.706	 -0.002	  0.002	  0.007	 26.400	 99.292	 -0.476
71321	  0.060	 -0.151	  0.330	  0.155	 -0.053	 -9.668	 -0.004	  0.004	  0.003	 26.400	 99.276	  0.957
71371	  0.063	 -0.154	  0.333	  0.156	  0.018	 -9.670	 -0.003	  0.002	  0.005	 26.400	 99.280	  0.599
71421	  0.061	 -0.155	  0.327	  0.151	  0.015	 -9.614	 -0.003	  0.002	  0.008	 26.400	 99.292	 -0.476
71471	  0.062	 -0.157	  0.329	  0.239	 -0.136	 -9.426	  0.000	  0.001	  0.004	 26.400	 99.276	  0.957
71521	  0.059	 -0.147	  0.331	  0.145	 -0.009	 -9.604	 -0.003	  0.003	  0.004	 26.400	 99.292	 -0.476
71571	  0.060	 -0.157	  0.331	  0.184	 -0.038	 -9.745	 -0.002	  0.003	  0.006	 26.400	 99.287	 -0.028
71621	  0.060	 -0.152	  0.331	  0.169	 -0.053	 -9.719	 -0.003	  0.002	  0.003	 26.400	 99.292	 -0.476
71671	  0.059	 -0.154	  0.329	  0.171	 -0.006	 -9.757	 -0.003	  0.004	  0.003	 26.400	 99.287	 -0.028
71721	  0.061	 -0.150	  0.333	  0.186	 -0.037	 -9.644	 -0.005	  0.003	  0.005	 26.400	 99.299	 -1.102
71771	  0.057	 -0.153	  0.329	  0.156	 -0.011	 -9.620	 -0.003	  0.002	  0.005	 26.400	 99.276	  0.957
71821	  0.058	 -0.156	  0.331	  0.165	 -0.025	 -9.630	 -0.003	  0.002	  0.005	 26.400	 99.292	 -0.476
71871	  0.059	 -0.155	  0.331	  0.159	 -0.029	 -9.656	 -0.004	  0.003	  0.004	 26.400	 99.292	 -0.476
71921	  0.060	 -0.152	  0.333	  0.173	 -0.011	 -9.586	 -0.003	  0.002	  0.005	 26.400	 99.292	 -0.476
71971	  0.061	 -0.152	  0.329	  0.138	 -0.036	 -9.654	 -0.002	  0.001	  0.005	 26.400	 99.280	  0.599
72021	  0.060	 -0.156	  0.332	  0.202	 -0.110	 -9.691	 -0.004	  0.002	  0.004	 26.400	 99.292	 -0.476
72071	  0.061	 -0.155	  0.329	  0.172	  0.016	 -9.688	 -0.003	  0.003	  0.005	 26.400	 99.292	 -0.476
72121	  0.059	 -0.156	  0.331	  0.173	 -0.108	 -9.713	 -0.003	  0.003	  0.005	 26.400	 99.292	 -0.476
72171	  0.060	 -0.152	  0.330	  0.150	  0.002	 -9.621	 -0.005	  0.002	  0.004	 26.400	 99.280	  0.599
72221	  0.064	 -0.145	  0.332	  0.185	 -0.073	 -9.627	 -0.003	  0.001	  0.005	 26.400	 99.280	  0.599
72271	  0.062	 -0.156	  0.332	  0.142	 -0.035	 -9.640	 -0.004	  0.003	  0.003	 26.400	 99.292	 -0.476
72321	  0.062	 -0.153	  0.333	  0.175	 -0.001	 -9.663	 -0.003	  0.002	  0.006	 26.400	 99.292	 -0.476
72371	  0.064	 -0.152	  0.331	  0.159	 -0.059	 -9.628	 -0.003	  0.003	  0.005	 26.400	 99.292	 -0.476
72421	  0.060	 -0.144	  0.327	  0.152	  0.062	 -9.672	 -0.003	  0.004	  0.005	 26.400	 99.280	  0.599
72471	  0.062	 -0.148	  0.331	  0.206	 -0.114	 -9.636	 -0.002	  0.002	  0.003	 26.500	 99.285	  0.151
72521	  0.061	 -0.154	  0.333	  0.123	  0.079	 -9.691	 -0.003	  0.002	  0.007	 26.400	 99.280	  0.599
72571	  0.059	 -0.156	  0.332	  0.210	 -0.156	 -9.659	 -0.003	  0.003	  0.005	 26.400	 99.292	 -0.476
72621	  0.062	 -0.152	  0.330	  0.134	  0.053	 -9.646	 -0.003	  0.003	  0.002	 26.400	 99.280	  0.599
72671	  0.064	 -0.146	  0.333	  0.158	 -0.049	 -9.632	 -0.002	  0.003	  0.008	 26.500	 99.296	 -0.833
72721	  0.063	 -0.155	  0.331	  0.183	 -0.105	 -9.651	 -0.004	  0.003	  0.002	 26.400	 99.285	  0.151
72771	  0.059	 -0.158	  0.331	  0.151	  0.043	 -9.619	 -0.004	  0.004	  0.003	 26.400	 99.280	  0.599
72821	  0.062	 -0.153	  0.333	  0.173	 -0.069	 -9.664	 -0.002	  0.002	  0.005	 26.400	 99.296	 -0.833
72871	  0.061	 -0.158	  0.333	  0.164	 -0.070	 -9.659	 -0.004	  0.002	  0.004	 26.400	 99.280	  0.599
72921	  0.063	 -0.156	  0.334	  0.198	  0.028	 -9.592	 -0.001	  0.001	  0.006	 26.400	 99.280	  0.599
72971	  0.062	 -0.151	  0.330	  0.200	 -0.103	 -9.612	 -0.003	  0.002	  0.003	 26.400	 99.292	 -0.476
73021	  0.061	 -0.156	  0.335	  0.136	  0.024	 -9.670	 -0.003	  0.002	  0.006	 26.400	 99.280	  0.599
73071	  0.061	 -0.152	  0.332	  0.177	 -0.070	 -9.659	 -0.005	  0.004	  0.005	 26.400	 99.292	 -0.476
73121	  0.063	 -0.157	  0.333	  0.154	 -0.007	 -9.690	 -0.003	  0.003	  0.006	 26.400	 99.280	  0.599
73171	  0.063	 -0.155	  0.333	  0.170	 -0.061	 -9.616	 -0.003	  0.003	  0.007	 26.500	 99.296	 -0.833
73221	  0.063	 -0.155	  0.334	  0.148	  0.008	 -9.598	 -0.004	  0.003	  0.004	 26.400	 99.280	  0.599
73271	  0.062	 -0.156	  0.328	  0.137	 -0.015	 -9.654	 -0.002	  0.004	  0.006	 26.400	 99.292	 -0.476
73321	  0.063	 -0.155	  0.335	  0.185	 -0.124	 -9.660	 -0.002	  0.003	  0.006	 26.500	 99.285	  0.151
73371	  0.064	 -0.150	  0.334	  0.145	  0.064	 -9.696	 -0.004	  0.003	  0.001	 26.500	 99.285	  0.151
73421	  0.064	 -0.159	  0.331	  0.170	  0.009	 -9.648	 -0.003	  0.003	  0.009	 26.400	 99.296	 -0.833
73471	  0.063	 -0.157	  0.333	  0.162	 -0.133	 -9.639	 -0.003	  0.001	  0.003	 26.500	 99.296	 -0.833
73521	  0.063	 -0.159	  0.333	  0.163	  0.111	 -9.669	 -0.004	  0.003	  0.005	 26.400	 99.280	  0.599
73571	  0.065	 -0.154	  0.334	  0.180	 -0.103	 -9.692	 -0.004	  0.002	  0.008	 26.500	 99.285	  0.151
73621	  0.064	 -0.155	  0.333	  0.121	 -0.027	 -9.588	 -0.005	  0.002	  0.001	 26.500	 99.285	  0.151
73671	  0.063	 -0.157	  0.336	  0.206	  0.060	 -9.627	 -0.002	  0.002	  0.006	 26.400	 99.280	  0.599
73721	  0.062	 -0.154	  0.335	  0.181	 -0.153	 -9.650	 -0.004	  0.003	  0.005	 26.500	 99.285	  0.151
73771	  0.064	 -0.153	  0.335	  0.145	  0.055	 -9.673	 -0.003	  0.002	  0.003	 26.400	 99.292	 -0.476
73822	  0.063	 -0.160	  0.333	  0.107	 -0.000	 -9.409	 -0.002	  0.007	  0.007	 26.500	 99.285	  0.151
73871	  0.062	 -0.155	  0.327	  0.210	  0.006	 -9.649	  0.002	  0.003	  0.005	 26.500	 99.285	  0.151
73922	  0.064	 -0.159	  0.333	  0.174	 -0.033	 -9.720	  0.000	  0.001	  0.005	 26.500	 99.285	  0.151
73971	  0.063	 -0.156	  0.330	  0.181	  0.004	 -9.699	 -0.003	  0.002	  0.004	 26.500	 99.285	  0.151
74021	  0.064	 -0.156	  0.329	  0.164	 -0.073	 -9.659	 -0.005	  0.005	  0.005	 26.500	 99.289	 -0.207
74071	  0.062	 -0.158	  0.331	  0.164	 -0.048	 -9.662	 -0.004	  0.002	  0.004	 26.500	 99.285	  0.151
74122	  0.062	 -0.156	  0.333	  0.169	 -0.006	 -9.613	 -0.003	  0.002	  0.006	 26.500	 99.280	  0.599
74172	  0.060	 -0.148	  0.333	  0.174	 -0.050	 -9.683	 -0.004	  0.002	  0.004	 26.500	 99.296	 -0.833
74222	  0.062	 -0.156	  0.336	  0.160	  0.017	 -9.641	 -0.004	  0.003	  0.005	 26.500	 99.285	  0.151
74272	  0.063	 -0.159	  0.331	  0.182	 -0.052	 -9.652	 -0.003	  0.002	  0.006	 26.500	 99.285	  0.151
74322	  0.062	 -0.153	  0.331	  0.169	 -0.010	 -9.685	 -0.004	  0.002	  0.004	 26.500	 99.296	 -0.833
74372	  0.060	 -0.156	  0.330	  0.167	 -0.021	 -9.610	 -0.004	  0.003	  0.007	 26.500	 99.285	  0.151
74422	  0.061	 -0.160	  0.335	  0.180	 -0.072	 -9.639	 -0.003	  0.002	  0.005	 26.500	 99.285	  0.151
74472	  0.062	 -0.154	  0.331	  0.138	  0.025	 -9.643	 -0.003	  0.003	  0.003	 26.500	 99.285	  0.151
74522	  0.062	 -0.154	  0.331	  0.187	 -0.014	 -9.689	 -0.003	  0.003	  0.005	 26.500	 99.285	  0.151
74572	  0.066	 -0.154	  0.326	  0.196	 -0.073	 -9.684	 -0.003	  0.003	  0.003	 26.500	 99.285	  0.151
74622	  0.063	 -0.152	  0.330	  0.156	  0.021	 -9.702	 -0.002	  0.003	  0.005	 26.500	 99.285	  0.151
74672	  0.059	 -0.151	  0.328	  0.176	 -0.103	 -9.621	 -0.004	  0.003	  0.005	 26.500	 99.285	  0.151
74722	  0.056	 -0.160	  0.323	  0.156	 -0.009	 -9.618	 -0.002	  0.003	  0.003	 26.500	 99.285	  0.151
74772	  0.059	 -0.160	  0.329	  0.166	  0.024	 -9.566	 -0.002	  0.002	  0.005	 26.500	 99.285	  0.151
74822	  0.060	 -0.151	  0.331	  0.185	 -0.046	 -9.629	 -0.003	  0.002	  0.004	 26.500	 99.285	  0.151
74872	  0.058	 -0.158	  0.329	  0.175	  0.020	 -9.688	 -0.002	  0.002	  0.004	 26.500	 99.285	  0.151
74922	  0.060	 -0.159	  0.333	  0.165	 -0.025	 -9.704	 -0.003	  0.002	  0.005	 26.500	 99.285	  0.151
74972	  0.062	 -0.160	  0.331	  0.160	 -0.050	 -9.651	 -0.003	  0.004	  0.006	 26.500	 99.285	  0.151
75022	  0.058	 -0.157	  0.328	  0.179	 -0.044	 -9.684	 -0.003	  0.002	  0.004	 26.500	 99.285	  0.151
75072	  0.061	 -0.158	  0.333	  0.183	  0.008	 -9.645	 -0.004	  0.003	  0.005	 26.500	 99.285	  0.151
75122	  0.061	 -0.157	  0.327	  0.185	 -0.082	 -9.663	 -0.003	  0.004	  0.005	 26.500	 99.285	  0.151
75172	  0.061	 -0.162	  0.329	  0.173	 -0.007	 -9.671	 -0.003	  0.003	  0.005	 26.500	 99.296	 -0.833
75222	  0.061	 -0.151	  0.329	  0.167	 -0.047	 -9.630	 -0.003	  0.003	  0.006	 26.500	 99.285	  0.151
75272	  0.062	 -0.153	  0.330	  0.164	 -0.032	 -9.629	 -0.004	  0.003	  0.004	 26.500	 99.285	  0.151
75322	  0.061	 -0.154	  0.327	  0.159	  0.020	 -9.656	 -0.004	  0.002	  0.006	 26.500	 99.289	 -0.207
75372	  0.060	 -0.160	  0.324	  0.190	 -0.092	 -9.629	 -0.003	  0.002	  0.005	 26.500	 99.274	  1.136
75422	  0.059	 -0.155	  0.328	  0.157	  0.033	 -9.664	 -0.004	  0.003	  0.005	 26.500	 99.285	  0.151
75472	  0.060	 -0.159	  0.331	  0.196	 -0.069	 -9.670	 -0.002	  0.002	  0.007	 26.500	 99.274	  1.136
75522	  0.061	 -0.151	  0.329	  0.159	 -0.024	 -9.577	 -0.003	  0.002	  0.003	 26.500	 99.285	  0.151
75572	  0.061	 -0.158	  0.331	  0.172	 -0.009	 -9.624	 -0.003	  0.002	  0.006	 26.500	 99.289	 -0.207
75622	  0.061	 -0.156	  0.332	  0.194	 -0.057	 -9.620	 -0.004	  0.003	  0.006	 26.500	 99.289	 -0.207
75672	  0.058	 -0.159	  0.331	  0.212	 -0.050	 -9.544	 -0.001	  0.003	  0.005	 26.500	 99.289	 -0.207
75722	  0.060	 -0.157	  0.329	  0.157	 -0.035	 -9.662	 -0.002	  0.002	  0.004	 26.500	 99.289	 -0.207
75772	  0.058	 -0.163	  0.332	  0.147	  0.015	 -9.670	 -0.002	  0.002	  0.003	 26.500	 99.278	  0.778
75822	  0.062	 -0.162	  0.333	  0.201	 -0.044	 -9.743	 -0.003	  0.003	  0.006	 26.500	 99.274	  1.136
75872	  0.059	 -0.155	  0.328	  0.173	 -0.080	 -9.651	 -0.003	  0.001	  0.004	 26.500	 99.274	  1.136
75922	  0.060	 -0.153	  0.332	  0.163	  0.044	 -9.568	 -0.004	  0.004	  0.005	 26.500	 99.289	 -0.207
75972	  0.064	 -0.159	  0.329	  0.163	 -0.048	 -9.631	 -0.003	  0.001	  0.005	 26.500	 99.289	 -0.207
76022	  0.058	 -0.162	  0.330	  0.143	 -0.059	 -9.668	 -0.002	  0.003	  0.004	 26.500	 99.289	 -0.207
76072	  0.060	 -0.160	  0.326	  0.153	  0.026	 -9.667	 -0.004	  0.003	  0.005	 26.500	 99.289	 -0.207
76122	  0.059	 -0.157	  0.331	  0.157	 -0.087	 -9.628	 -0.002	  0.003	  0.006	 26.500	 99.289	 -0.207
76172	  0.060	 -0.158	  0.330	  0.179	 -0.013	 -9.600	 -0.003	  0.002	  0.003	 26.500	 99.300	 -1.192
76222	  0.059	 -0.157	  0.329	  0.163	 -0.015	 -9.649	 -0.003	  0.003	  0.007	 26.500	 99.289	 -0.207
76272	  0.057	 -0.161	  0.333	  0.157	 -0.094	 -9.620	 -0.002	  0.002	  0.005	 26.500	 99.289	 -0.207
76322	  0.059	 -0.149	  0.322	  0.151	  0.011	 -9.687	 -0.003	  0.003	  0.004	 26.500	 99.289	 -0.207
76372	  0.061	 -0.160	  0.331	  0.129	 -0.055	 -9.677	 -0.006	  0.004	  0.004	 26.500	 99.289	 -0.207
76422	  0.061	 -0.161	  0.328	  0.140	  0.011	 -9.728	 -0.002	  0.002	  0.005	 26.500	 99.278	  0.778
76472	  0.060	 -0.160	  0.331	  0.200	 -0.057	 -9.699	 -0.006	  0.004	  0.005	 26.500	 99.289	 -0.207
76522	  0.060	 -0.157	  0.329	  0.133	 -0.026	 -9.677	 -0.004	  0.003	  0.005	 26.500	 99.300	 -1.192
76572	  0.060	 -0.159	  0.332	  0.187	 -0.078	 -9.599	 -0.002	  0.002	  0.003	 26.500	 99.289	 -0.207
76622	  0.058	 -0.158	  0.329	  0.175	  0.026	 -9.665	 -0.003	  0.002	  0.005	 26.500	 99.289	 -0.207
76672	  0.059	 -0.160	  0.328	  0.170	 -0.068	 -9.661	 -0.004	  0.003	  0.006	 26.500	 99.278	  0.778
76722	  0.061	 -0.159	  0.330	  0.164	 -0.126	 -9.874	  0.005	  0.004	  0.006	 26.500	 99.278	  0.778
76772	  0.060	 -0.160	  0.328	  0.196	 -0.132	 -9.746	 -0.002	  0.002	  0.006	 26.500	 99.278	  0.778
76822	  0.059	 -0.156	  0.333	  0.158	 -0.049	 -9.654	 -0.008	  0.004	  0.004	 26.500	 99.278	  0.778
76872	  0.060	 -0.158	  0.332	  0.143	  0.015	 -9.609	 -0.004	  0.004	  0.006	 26.500	 99.289	 -0.207
76922	  0.063	 -0.156	  0.330	  0.191	 -0.043	 -9.668	 -0.002	  0.003	  0.004	 26.500	 99.278	  0.778
76972	  0.057	 -0.159	  0.329	  0.140	 -0.020	 -9.648	 -0.003	  0.004	  0.005	 26.500	 99.289	 -0.207
77022	  0.061	 -0.152	  0.330	  0.174	 -0.007	 -9.659	 -0.003	  0.003	  0.003	 26.500	 99.289	 -0.207
77072	  0.061	 -0.161	  0.329	  0.166	 -0.039	 -9.618	 -0.003	  0.002	  0.006	 26.500	 99.289	 -0.207
77122	  0.061	 -0.161	  0.331	  0.169	 -0.014	 -9.680	 -0.003	  0.002	  0.007	 26.500	 99.289	 -0.207
77172	  0.062	 -0.155	  0.329	  0.184	 -0.067	 -9.657	 -0.003	  0.002	  0.005	 26.500	 99.278	  0.778
77222	  0.060	 -0.150	  0.332	  0.187	 -0.025	 -9.608	 -0.002	  0.002	  0.004	 26.500	 99.293	 -0.565
77272	  0.062	 -0.158	  0.327	  0.176	 -0.035	 -9.658	 -0.004	  0.002	  0.004	 26.500	 99.282	  0.420
77322	  0.058	 -0.161	  0.329	  0.168	  0.026	 -9.616	 -0.004	  0.003	  0.006	 26.500	 99.293	 -0.565
77372	  0.058	 -0.159	  0.328	  0.173	 -0.045	 -9.706	 -0.002	  0.003	  0.004	 26.500	 99.278	  0.778
77422	  0.061	 -0.160	  0.331	  0.146	  0.007	 -9.702	 -0.004	  0.004	  0.003	 26.500	 99.278	  0.778
77472	  0.061	 -0.158	  0.329	  0.191	 -0.030	 -9.628	 -0.003	  0.002	  0.005	 26.500	 99.278	  0.778
77522	  0.059	 -0.160	  0.331	  0.142	 -0.065	 -9.584	 -0.002	  0.003	  0.003	 26.500	 99.282	  0.420
77572	  0.059	 -0.158	  0.328	  0.156	  0.030	 -9.687	 -0.002	  0.002	  0.005	 26.500	 99.304	 -1.550
77622	  0.058	 -0.157	  0.330	  0.184	 -0.043	 -9.639	 -0.004	  0.002	  0.005	 26.500	 99.289	 -0.207
77672	  0.062	 -0.163	  0.333	  0.137	 -0.027	 -9.686	 -0.004	  0.002	  0.006	 26.500	 99.293	 -0.565
77722	  0.057	 -0.161	  0.327	  0.163	 -0.041	 -9.558	 -0.004	  0.003	  0.005	 26.500	 99.293	 -0.565
77772	  0.062	 -0.159	  0.328	  0.167	  0.004	 -9.621	 -0.003	  0.003	  0.006	 26.500	 99.267	  1.763
77822	  0.059	 -0.160	  0.326	  0.173	 -0.033	 -9.663	 -0.003	  0.003	  0.005	 26.500	 99.282	  0.420
77872	  0.059	 -0.158	  0.331	  0.180	 -0.029	 -9.677	 -0.004	  0.002	  0.005	 26.500	 99.282	  0.420
77922	  0.061	 -0.159	  0.329	  0.190	 -0.035	 -9.676	 -0.003	  0.003	  0.003	 26.500	 99.293	 -0.565
77972	  0.058	 -0.162	  0.329	  0.190	 -0.087	 -9.648	 -0.003	  0.001	  0.006	 26.500	 99.293	 -0.565
78022	  0.060	 -0.160	  0.331	  0.185	 -0.017	 -9.667	 -0.004	  0.003	  0.002	 26.500	 99.293	 -0.565
78072	  0.059	 -0.162	  0.330	  0.174	  0.020	 -9.679	 -0.004	  0.003	  0.007	 26.500	 99.282	  0.420
78122	  0.060	 -0.159	  0.327	  0.168	 -0.093	 -9.638	 -0.004	  0.002	  0.004	 26.500	 99.293	 -0.565
