Time	 MagX	 MagY	 MagZ	 AccelX	 AccelY	 AccelZ	 Yaw	 Pitch	 Roll	 Temperature	 Pressure	 Altitude
44124	  0.084	  0.118	  1.035	  0.295	 -1.697	 -9.534	 -0.005	 -0.001	  0.004	 29.000	 98.741	 -99999.000
44173	  0.079	  0.126	  1.033	  0.282	 -1.718	 -9.548	 -0.004	  0.006	  0.002	 29.000	 98.741	 -99999.000
44223	  0.080	  0.122	  1.031	  0.321	 -1.740	 -9.594	 -0.004	  0.010	  0.003	 29.000	 98.730	 -99999.000
44273	  0.079	  0.125	  1.032	  0.333	 -1.705	 -9.567	 -0.005	 -0.002	  0.004	 29.000	 98.730	 -99999.000
44323	  0.080	  0.120	  1.033	  0.297	 -1.732	 -9.567	 -0.005	 -0.004	  0.005	 29.000	 98.730	 -99999.000
44373	  0.076	  0.124	  1.030	  0.287	 -1.719	 -9.549	 -0.004	  0.004	  0.002	 29.100	 98.745	 -99999.000
44423	  0.080	  0.119	  1.033	  0.320	 -1.729	 -9.572	 -0.004	  0.009	  0.002	 29.100	 98.741	 -99999.000
44473	  0.079	  0.122	  1.029	  0.332	 -1.692	 -9.556	 -0.005	  0.001	  0.004	 29.000	 98.741	 -99999.000
44523	  0.079	  0.130	  1.034	  0.307	 -1.699	 -9.588	 -0.005	 -0.002	  0.004	 29.000	 98.745	 -99999.000
44574	  0.077	  0.121	  1.031	  0.295	 -1.697	 -9.588	 -0.006	  0.002	  0.005	 29.000	 98.741	 -99999.000
44624	  0.079	  0.124	  1.030	  0.324	 -1.739	 -9.598	 -0.004	  0.007	  0.003	 29.100	 98.741	 -99999.000
44674	  0.080	  0.122	  1.031	  0.319	 -1.739	 -9.564	 -0.004	  0.003	  0.003	 29.000	 98.741	 -99999.000
44724	  0.079	  0.122	  1.032	  0.309	 -1.696	 -9.577	 -0.004	 -0.001	  0.003	 29.000	 98.745	 -99999.000
44774	  0.079	  0.122	  1.031	  0.284	 -1.727	 -9.556	 -0.005	  0.002	  0.005	 29.000	 98.730	 -99999.000
44824	  0.080	  0.134	  1.034	  0.311	 -1.714	 -9.576	 -0.005	  0.006	  0.003	 29.100	 98.745	 -99999.000
44874	  0.081	  0.120	  1.026	  0.334	 -1.712	 -9.594	 -0.005	  0.004	  0.004	 29.100	 98.745	 -99999.000
44924	  0.080	  0.123	  1.030	  0.332	 -1.708	 -9.578	 -0.004	 -0.002	  0.004	 29.000	 98.745	 -99999.000
44974	  0.077	  0.121	  1.035	  0.305	 -1.715	 -9.579	 -0.005	  0.001	  0.003	 29.100	 98.745	 -99999.000
45024	  0.079	  0.134	  1.031	  0.303	 -1.719	 -9.571	 -0.004	  0.006	  0.003	 29.000	 98.730	 -99999.000
45074	  0.079	  0.119	  1.033	  0.343	 -1.717	 -9.602	 -0.004	  0.006	  0.001	 29.100	 98.734	 -99999.000
45124	  0.079	  0.116	  1.030	  0.329	 -1.699	 -9.588	 -0.005	 -0.001	  0.004	 29.100	 98.734	 -99999.000
45174	  0.079	  0.123	  1.032	  0.292	 -1.731	 -9.578	 -0.004	 -0.000	  0.004	 29.000	 98.741	 -99999.000
45224	  0.081	  0.120	  1.031	  0.314	 -1.706	 -9.569	 -0.004	  0.005	  0.004	 29.000	 98.734	 -99999.000
45274	  0.078	  0.122	  1.032	  0.325	 -1.700	 -9.548	 -0.005	  0.004	  0.003	 29.100	 98.734	 -99999.000
45324	  0.080	  0.123	  1.036	  0.295	 -1.719	 -9.562	 -0.004	 -0.000	  0.004	 29.100	 98.730	 -99999.000
45374	  0.078	  0.122	  1.030	  0.302	 -1.731	 -9.590	 -0.005	  0.000	  0.003	 29.100	 98.734	 -99999.000
45424	  0.079	  0.121	  1.033	  0.305	 -1.707	 -9.609	 -0.005	  0.005	  0.004	 29.100	 98.734	 -99999.000
45474	  0.079	  0.127	  1.035	  0.331	 -1.698	 -9.567	 -0.004	  0.004	  0.002	 29.100	 98.734	 -99999.000
45524	  0.080	  0.127	  1.032	  0.316	 -1.721	 -9.590	 -0.003	  0.000	  0.004	 29.100	 98.756	 -99999.000
45574	  0.079	  0.133	  1.033	  0.312	 -1.703	 -9.565	 -0.005	  0.001	  0.003	 29.100	 98.734	 -99999.000
45624	  0.081	  0.122	  1.036	  0.284	 -1.716	 -9.572	 -0.005	  0.005	  0.002	 29.100	 98.745	 -99999.000
45674	  0.080	  0.123	  1.029	  0.341	 -1.719	 -9.594	 -0.005	  0.005	  0.004	 29.100	 98.745	 -99999.000
45724	  0.079	  0.128	  1.034	  0.335	 -1.704	 -9.574	 -0.004	  0.000	  0.004	 29.100	 98.745	 -99999.000
45773	  0.079	  0.123	  1.032	  0.329	 -1.718	 -9.607	 -0.004	  0.002	  0.002	 29.100	 98.745	 -99999.000
45823	  0.079	  0.118	  1.031	  0.319	 -1.686	 -9.581	 -0.005	  0.005	  0.002	 29.100	 98.734	 -99999.000
45873	  0.080	  0.121	  1.032	  0.314	 -1.700	 -9.541	 -0.005	  0.004	  0.004	 29.100	 98.745	 -99999.000
45923	  0.079	  0.121	  1.029	  0.306	 -1.706	 -9.555	 -0.005	  0.001	  0.004	 29.100	 98.745	 -99999.000
45973	  0.081	  0.123	  1.034	  0.289	 -1.723	 -9.559	 -0.003	  0.002	  0.003	 29.100	 98.734	 -99999.000
46023	  0.079	  0.123	  1.032	  0.300	 -1.726	 -9.576	 -0.005	  0.005	  0.004	 29.100	 98.734	 -99999.000
46073	  0.079	  0.122	  1.032	  0.329	 -1.707	 -9.560	 -0.005	  0.004	  0.004	 29.100	 98.745	 -99999.000
46123	  0.078	  0.125	  1.031	  0.314	 -1.712	 -9.584	 -0.004	  0.001	  0.003	 29.100	 98.749	 -99999.000
46173	  0.080	  0.121	  1.030	  0.319	 -1.696	 -9.565	 -0.004	  0.001	  0.004	 29.100	 98.734	 -99999.000
46223	  0.080	  0.126	  1.031	  0.296	 -1.708	 -9.558	 -0.004	  0.004	  0.004	 29.100	 98.745	 -99999.000
46273	  0.077	  0.121	  1.034	  0.320	 -1.726	 -9.585	 -0.004	  0.002	  0.003	 29.100	 98.734	 -99999.000
46323	  0.080	  0.122	  1.029	  0.308	 -1.706	 -9.586	 -0.004	  0.001	  0.004	 29.100	 98.749	 -99999.000
46373	  0.079	  0.120	  1.033	  0.324	 -1.693	 -9.582	 -0.003	  0.000	  0.005	 29.100	 98.749	 -99999.000
46423	  0.078	  0.126	  1.034	  0.322	 -1.729	 -9.556	 -0.004	  0.005	  0.004	 29.100	 98.738	 -99999.000
46473	  0.079	  0.122	  1.034	  0.333	 -1.709	 -9.561	 -0.004	  0.003	  0.004	 29.100	 98.745	 -99999.000
46523	  0.081	  0.124	  1.032	  0.333	 -1.701	 -9.572	 -0.004	 -0.000	  0.005	 29.100	 98.738	 -99999.000
46573	  0.080	  0.121	  1.032	  0.288	 -1.721	 -9.545	 -0.004	  0.001	  0.004	 29.100	 98.745	 -99999.000
46623	  0.079	  0.125	  1.032	  0.327	 -1.714	 -9.536	 -0.004	  0.003	  0.005	 29.100	 98.745	 -99999.000
46673	  0.081	  0.121	  1.031	  0.321	 -1.702	 -9.557	 -0.004	  0.003	  0.003	 29.100	 98.745	 -99999.000
46723	  0.079	  0.121	  1.030	  0.331	 -1.731	 -9.565	 -0.005	  0.002	  0.004	 29.100	 98.738	 -99999.000
46773	  0.079	  0.124	  1.026	  0.312	 -1.717	 -9.593	 -0.006	  0.002	  0.004	 29.100	 98.745	 -99999.000
46823	  0.079	  0.120	  1.031	  0.318	 -1.720	 -9.563	 -0.003	  0.004	  0.003	 29.100	 98.749	 -99999.000
46873	  0.078	  0.126	  1.032	  0.318	 -1.720	 -9.586	 -0.006	  0.002	  0.003	 29.100	 98.749	 -99999.000
46923	  0.078	  0.124	  1.036	  0.317	 -1.704	 -9.579	 -0.006	 -0.001	  0.005	 29.100	 98.749	 -99999.000
46973	  0.080	  0.127	  1.033	  0.308	 -1.724	 -9.604	 -0.004	  0.002	  0.004	 29.100	 98.734	 -99999.000
47023	  0.080	  0.120	  1.034	  0.303	 -1.725	 -9.572	 -0.004	  0.004	  0.003	 29.100	 98.738	 -99999.000
47073	  0.082	  0.122	  1.031	  0.293	 -1.715	 -9.564	 -0.004	  0.003	  0.004	 29.100	 98.749	 -99999.000
47123	  0.080	  0.123	  1.032	  0.313	 -1.701	 -9.599	 -0.005	  0.000	  0.004	 29.100	 98.745	 -99999.000
47173	  0.080	  0.121	  1.032	  0.315	 -1.720	 -9.581	 -0.004	  0.004	  0.004	 29.100	 98.738	 -99999.000
47223	  0.079	  0.121	  1.031	  0.319	 -1.718	 -9.585	 -0.006	  0.005	  0.004	 29.100	 98.749	 -99999.000
47273	  0.080	  0.123	  1.036	  0.323	 -1.718	 -9.540	 -0.004	  0.003	  0.003	 29.100	 98.749	 -99999.000
47323	  0.077	  0.123	  1.035	  0.305	 -1.716	 -9.562	 -0.005	  0.001	  0.005	 29.100	 98.749	 -99999.000
47373	  0.079	  0.125	  1.034	  0.306	 -1.718	 -9.538	 -0.004	  0.002	  0.003	 29.100	 98.760	 -99999.000
47423	  0.078	  0.124	  1.030	  0.299	 -1.683	 -9.562	 -0.005	  0.004	  0.004	 29.100	 98.738	 -99999.000
47473	  0.079	  0.129	  1.031	  0.315	 -1.717	 -9.576	 -0.004	  0.001	  0.003	 29.100	 98.749	 -99999.000
47523	  0.080	  0.127	  1.033	  0.327	 -1.711	 -9.578	 -0.005	  0.002	  0.005	 29.100	 98.753	 -99999.000
47573	  0.079	  0.123	  1.033	  0.301	 -1.721	 -9.595	 -0.004	  0.001	  0.002	 29.100	 98.749	 -99999.000
47623	  0.082	  0.124	  1.031	  0.306	 -1.713	 -9.576	 -0.005	  0.004	  0.003	 29.100	 98.749	 -99999.000
47673	  0.080	  0.122	  1.033	  0.315	 -1.739	 -9.599	 -0.004	  0.002	  0.004	 29.100	 98.749	 -99999.000
47723	  0.080	  0.123	  1.027	  0.305	 -1.695	 -9.559	 -0.005	  0.000	  0.005	 29.100	 98.749	 -99999.000
47773	  0.079	  0.122	  1.031	  0.315	 -1.742	 -9.563	 -0.005	  0.003	  0.004	 29.100	 98.749	 -99999.000
47823	  0.078	  0.122	  1.033	  0.312	 -1.729	 -9.606	 -0.005	  0.003	  0.003	 29.100	 98.749	 -99999.000
47873	  0.078	  0.120	  1.031	  0.289	 -1.724	 -9.588	 -0.003	  0.002	  0.003	 29.100	 98.738	 -99999.000
47923	  0.079	  0.126	  1.034	  0.331	 -1.728	 -9.576	 -0.004	  0.002	  0.002	 29.100	 98.749	 -99999.000
47973	  0.081	  0.121	  1.033	  0.314	 -1.712	 -9.581	 -0.005	  0.002	  0.004	 29.100	 98.749	 -99999.000
48023	  0.078	  0.117	  1.033	  0.313	 -1.711	 -9.591	 -0.003	  0.004	  0.003	 29.100	 98.749	 -99999.000
48073	  0.079	  0.126	  1.028	  0.303	 -1.725	 -9.576	 -0.004	  0.002	  0.004	 29.100	 98.749	 -99999.000
48123	  0.079	  0.125	  1.031	  0.325	 -1.697	 -9.545	 -0.005	  0.001	  0.004	 29.100	 98.749	 -99999.000
48173	  0.080	  0.128	  1.032	  0.300	 -1.718	 -9.614	 -0.004	  0.002	  0.004	 29.100	 98.738	 -99999.000
48223	  0.077	  0.121	  1.030	  0.297	 -1.721	 -9.545	 -0.005	  0.003	  0.003	 29.100	 98.742	 -99999.000
48273	  0.078	  0.125	  1.032	  0.288	 -1.708	 -9.567	 -0.004	 -0.000	  0.003	 29.100	 98.753	 -99999.000
48323	  0.076	  0.120	  1.033	  0.299	 -1.706	 -9.559	 -0.003	  0.003	  0.004	 29.100	 98.738	 -99999.000
48373	  0.079	  0.123	  1.038	  0.286	 -1.701	 -9.561	 -0.005	  0.005	  0.003	 29.100	 98.749	 -99999.000
48423	  0.080	  0.122	  1.031	  0.311	 -1.709	 -9.570	 -0.005	  0.005	  0.004	 29.100	 98.738	 -99999.000
48473	  0.079	  0.120	  1.033	  0.320	 -1.698	 -9.564	 -0.004	  0.002	  0.004	 29.100	 98.742	 -99999.000
48523	  0.080	  0.120	  1.030	  0.284	 -1.742	 -9.586	 -0.004	  0.002	  0.004	 29.100	 98.742	 -99999.000
48573	  0.081	  0.123	  1.036	  0.290	 -1.737	 -9.573	 -0.005	  0.004	  0.003	 29.100	 98.749	 -99999.000
48623	  0.079	  0.126	  1.031	  0.322	 -1.727	 -9.566	 -0.004	  0.003	  0.003	 29.100	 98.765	 -99999.000
48673	  0.077	  0.122	  1.035	  0.322	 -1.715	 -9.536	 -0.004	  0.002	  0.003	 29.100	 98.738	 -99999.000
48723	  0.079	  0.126	  1.031	  0.309	 -1.711	 -9.598	 -0.004	  0.004	  0.004	 29.100	 98.753	 -99999.000
48773	  0.079	  0.121	  1.031	  0.290	 -1.701	 -9.570	 -0.005	  0.004	  0.004	 29.100	 98.753	 -99999.000
48823	  0.079	  0.124	  1.033	  0.294	 -1.713	 -9.566	 -0.005	  0.003	  0.003	 29.100	 98.742	 -99999.000
48873	  0.080	  0.123	  1.030	  0.298	 -1.713	 -9.555	 -0.004	  0.002	  0.003	 29.100	 98.742	 -99999.000
48923	  0.079	  0.120	  1.030	  0.299	 -1.716	 -9.598	 -0.004	  0.001	  0.004	 29.100	 98.749	 -99999.000
48973	  0.079	  0.119	  1.035	  0.322	 -1.707	 -9.549	 -0.004	  0.003	  0.004	 29.100	 98.749	 -99999.000
49023	  0.082	  0.121	  1.032	  0.328	 -1.734	 -9.562	 -0.006	  0.003	  0.004	 29.100	 98.753	 -99999.000
49073	  0.082	  0.122	  1.036	  0.304	 -1.696	 -9.582	 -0.005	  0.002	  0.004	 29.100	 98.738	 -99999.000
49123	  0.082	  0.130	  1.035	  0.297	 -1.713	 -9.574	 -0.005	  0.003	  0.003	 29.100	 98.742	 -99999.000
49173	  0.077	  0.119	  1.031	  0.297	 -1.721	 -9.579	 -0.004	  0.003	  0.003	 29.100	 98.753	 -99999.000
49223	  0.079	  0.124	  1.033	  0.290	 -1.738	 -9.594	 -0.005	  0.002	  0.005	 29.100	 98.753	 -99999.000
49273	  0.080	  0.129	  1.034	  0.316	 -1.702	 -9.581	 -0.005	  0.002	  0.004	 29.100	 98.742	 -99999.000
49322	  0.079	  0.119	  1.031	  0.312	 -1.690	 -9.580	 -0.003	  0.004	  0.004	 29.100	 98.742	 -99999.000
49372	  0.079	  0.128	  1.031	  0.288	 -1.736	 -9.577	 -0.005	  0.004	  0.003	 29.100	 98.742	 -99999.000
49423	  0.081	  0.128	  1.031	  0.305	 -1.722	 -9.534	 -0.006	  0.003	  0.004	 29.100	 98.742	 -99999.000
49473	  0.082	  0.124	  1.032	  0.295	 -1.717	 -9.534	 -0.005	  0.002	  0.003	 29.100	 98.742	 -99999.000
49522	  0.080	  0.124	  1.027	  0.290	 -1.722	 -9.579	 -0.005	  0.003	  0.003	 29.100	 98.735	 -99999.000
49572	  0.084	  0.125	  1.030	  0.316	 -1.729	 -9.525	 -0.004	  0.002	  0.003	 29.100	 98.753	 -99999.000
49622	  0.081	  0.119	  1.029	  0.306	 -1.703	 -9.561	 -0.005	  0.001	  0.004	 29.100	 98.742	 -99999.000
49672	  0.080	  0.121	  1.033	  0.327	 -1.720	 -9.574	 -0.004	  0.001	  0.004	 29.100	 98.742	 -99999.000
49722	  0.081	  0.126	  1.035	  0.325	 -1.707	 -9.598	 -0.004	  0.003	  0.004	 29.100	 98.753	 -99999.000
49772	  0.081	  0.124	  1.033	  0.332	 -1.704	 -9.567	 -0.005	  0.002	  0.003	 29.100	 98.753	 -99999.000
49822	  0.079	  0.121	  1.030	  0.303	 -1.726	 -9.592	 -0.006	  0.002	  0.004	 29.100	 98.746	 -99999.000
49872	  0.081	  0.124	  1.030	  0.338	 -1.718	 -9.586	 -0.004	  0.003	  0.002	 29.100	 98.742	 -99999.000
49922	  0.080	  0.123	  1.028	  0.316	 -1.743	 -9.614	 -0.004	  0.004	  0.003	 29.100	 98.757	 -99999.000
49973	  0.079	  0.124	  1.034	  0.311	 -1.704	 -9.563	 -0.004	  0.002	  0.004	 29.100	 98.731	 -99999.000
50022	  0.082	  0.124	  1.028	  0.302	 -1.717	 -9.544	 -0.005	  0.002	  0.004	 29.100	 98.753	 -99999.000
50073	  0.078	  0.130	  1.033	  0.293	 -1.705	 -9.577	 -0.004	  0.002	  0.003	 29.100	 98.742	 -99999.000
60875	  0.082	  0.123	  1.034	  0.309	 -1.778	 -9.613	 -0.005	  0.002	  0.004	 29.200	 98.733	  1.216
60923	  0.085	  0.122	  1.034	  0.285	 -1.717	 -9.563	 -0.003	  0.002	  0.003	 29.200	 98.749	 -0.229
60972	  0.082	  0.118	  1.033	  0.329	 -1.740	 -9.610	 -0.004	  0.004	  0.003	 29.200	 98.733	  1.216
61022	  0.083	  0.119	  1.035	  0.339	 -1.708	 -9.557	 -0.006	  0.002	  0.003	 29.200	 98.745	  0.132
61071	  0.082	  0.121	  1.027	  0.343	 -1.702	 -9.554	 -0.006	  0.001	  0.005	 29.200	 98.745	  0.132
61122	  0.085	  0.123	  1.034	  0.297	 -1.697	 -9.559	 -0.004	  0.003	  0.004	 29.200	 98.733	  1.216
61171	  0.081	  0.125	  1.029	  0.319	 -1.704	 -9.550	 -0.004	  0.003	  0.004	 29.200	 98.745	  0.132
61221	  0.084	  0.121	  1.033	  0.302	 -1.717	 -9.564	 -0.005	  0.002	  0.005	 29.200	 98.733	  1.216
61271	  0.080	  0.120	  1.030	  0.286	 -1.717	 -9.575	 -0.004	  0.001	  0.005	 29.200	 98.733	  1.216
61321	  0.082	  0.118	  1.034	  0.313	 -1.706	 -9.585	 -0.005	  0.003	  0.004	 29.200	 98.733	  1.216
61371	  0.081	  0.123	  1.035	  0.315	 -1.700	 -9.549	 -0.003	  0.004	  0.004	 29.200	 98.745	  0.132
61421	  0.081	  0.125	  1.033	  0.313	 -1.713	 -9.579	 -0.003	  0.001	  0.005	 29.200	 98.733	  1.216
61471	  0.079	  0.124	  1.031	  0.313	 -1.720	 -9.561	 -0.004	  0.001	  0.002	 29.200	 98.733	  1.216
61522	  0.080	  0.118	  1.031	  0.295	 -1.730	 -9.597	 -0.005	  0.003	  0.004	 29.200	 98.745	  0.132
61572	  0.085	  0.122	  1.031	  0.305	 -1.726	 -9.608	 -0.004	  0.004	  0.002	 29.200	 98.745	  0.132
61622	  0.085	  0.121	  1.032	  0.299	 -1.708	 -9.586	 -0.005	  0.002	  0.005	 29.200	 98.745	  0.132
61672	  0.084	  0.125	  1.035	  0.310	 -1.724	 -9.565	 -0.005	  0.002	  0.003	 29.200	 98.733	  1.216
61722	  0.083	  0.125	  1.032	  0.336	 -1.723	 -9.577	 -0.004	  0.003	  0.003	 29.200	 98.738	  0.765
61772	  0.083	  0.121	  1.032	  0.311	 -1.713	 -9.571	 -0.005	  0.003	  0.004	 29.200	 98.738	  0.765
61822	  0.080	  0.131	  1.033	  0.322	 -1.704	 -9.572	 -0.004	  0.002	  0.004	 29.200	 98.738	  0.765
61872	  0.082	  0.120	  1.034	  0.309	 -1.720	 -9.561	 -0.005	  0.001	  0.003	 29.200	 98.745	  0.132
61922	  0.080	  0.122	  1.027	  0.334	 -1.713	 -9.576	 -0.004	  0.003	  0.003	 29.200	 98.749	 -0.229
61972	  0.083	  0.118	  1.035	  0.331	 -1.700	 -9.572	 -0.005	  0.003	  0.004	 29.200	 98.733	  1.216
62022	  0.078	  0.121	  1.037	  0.327	 -1.704	 -9.553	 -0.004	  0.000	  0.005	 29.200	 98.745	  0.132
62072	  0.082	  0.121	  1.032	  0.309	 -1.703	 -9.556	 -0.003	  0.002	  0.003	 29.200	 98.733	  1.216
62122	  0.081	  0.125	  1.033	  0.306	 -1.725	 -9.558	 -0.004	  0.004	  0.004	 29.200	 98.733	  1.216
62172	  0.081	  0.121	  1.030	  0.306	 -1.703	 -9.569	 -0.004	  0.003	  0.006	 29.200	 98.745	  0.132
62222	  0.081	  0.121	  1.034	  0.297	 -1.731	 -9.578	 -0.005	  0.001	  0.003	 29.200	 98.738	  0.765
62272	  0.083	  0.119	  1.035	  0.298	 -1.698	 -9.570	 -0.006	  0.002	  0.004	 29.200	 98.738	  0.765
62322	  0.084	  0.119	  1.034	  0.311	 -1.709	 -9.575	 -0.005	  0.004	  0.004	 29.200	 98.738	  0.765
62372	  0.080	  0.133	  1.031	  0.304	 -1.718	 -9.549	 -0.004	  0.002	  0.003	 29.200	 98.733	  1.216
62422	  0.083	  0.119	  1.031	  0.297	 -1.739	 -9.610	 -0.004	  0.002	  0.004	 29.200	 98.733	  1.216
62472	  0.078	  0.124	  1.033	  0.315	 -1.705	 -9.581	 -0.005	  0.003	  0.004	 29.200	 98.733	  1.216
62522	  0.083	  0.119	  1.033	  0.316	 -1.749	 -9.564	 -0.005	  0.004	  0.004	 29.200	 98.733	  1.216
62572	  0.081	  0.119	  1.031	  0.335	 -1.707	 -9.578	 -0.003	  0.003	  0.003	 29.200	 98.745	  0.132
62622	  0.079	  0.120	  1.034	  0.315	 -1.697	 -9.556	 -0.004	  0.001	  0.004	 29.200	 98.738	  0.765
62672	  0.080	  0.121	  1.033	  0.302	 -1.724	 -9.575	 -0.005	  0.003	  0.004	 29.200	 98.733	  1.216
62722	  0.081	  0.118	  1.029	  0.297	 -1.712	 -9.576	 -0.004	  0.004	  0.003	 29.200	 98.749	 -0.229
62772	  0.081	  0.129	  1.031	  0.333	 -1.732	 -9.603	 -0.004	  0.002	  0.003	 29.200	 98.726	  1.848
62822	  0.082	  0.122	  1.028	  0.320	 -1.689	 -9.589	 -0.005	  0.002	  0.004	 29.200	 98.726	  1.848
62872	  0.082	  0.122	  1.029	  0.282	 -1.706	 -9.559	 -0.004	  0.003	  0.003	 29.200	 98.749	 -0.229
62922	  0.081	  0.121	  1.029	  0.329	 -1.714	 -9.543	 -0.004	  0.004	  0.004	 29.200	 98.749	 -0.229
62972	  0.083	  0.131	  1.033	  0.320	 -1.699	 -9.577	 -0.004	  0.002	  0.003	 29.200	 98.738	  0.765
63022	  0.079	  0.127	  1.034	  0.305	 -1.709	 -9.549	 -0.004	  0.001	  0.004	 29.200	 98.738	  0.765
63072	  0.083	  0.123	  1.033	  0.121	 -1.736	 -9.587	 -0.003	  0.036	 -0.002	 29.200	 98.738	  0.765
63122	  0.081	  0.124	  1.033	  0.162	 -1.752	 -9.634	 -0.009	  0.132	 -0.019	 29.200	 98.749	 -0.229
63172	  0.073	  0.120	  1.033	  0.415	 -1.740	 -9.545	 -0.016	  0.166	 -0.027	 29.200	 98.738	  0.765
63222	  0.059	  0.119	  1.026	  0.608	 -1.793	 -9.556	 -0.066	  0.417	 -0.070	 29.200	 98.738	  0.765
63272	  0.046	  0.124	  1.031	  1.401	 -1.495	 -9.289	 -0.069	  0.236	 -0.042	 29.200	 98.749	 -0.229
63322	  0.043	  0.118	  1.025	  1.322	 -1.484	 -9.351	  0.022	 -0.087	  0.022	 29.200	 98.738	  0.765
63372	  0.047	  0.113	  1.027	  0.772	 -1.802	 -9.713	  0.024	 -0.153	  0.030	 29.200	 98.738	  0.765
63422	  0.053	  0.121	  1.029	  0.851	 -1.576	 -9.525	  0.059	 -0.256	  0.094	 29.200	 98.749	 -0.229
63472	  0.068	  0.120	  1.030	  0.133	 -1.855	 -9.732	  0.020	 -0.266	  0.065	 29.200	 98.749	 -0.229
63522	  0.076	  0.123	  1.030	 -0.009	 -1.780	 -9.714	 -0.003	 -0.000	  0.005	 29.200	 98.738	  0.765
63572	  0.072	  0.120	  1.030	  0.537	 -1.738	 -9.494	 -0.008	  0.005	  0.002	 29.200	 98.749	 -0.229
63622	  0.075	  0.125	  1.029	  0.483	 -1.716	 -9.553	 -0.018	 -0.003	  0.005	 29.200	 98.738	  0.765
63672	  0.075	  0.123	  1.026	  0.618	 -1.679	 -9.480	  0.002	 -0.120	  0.023	 29.200	 98.738	  0.765
63722	  0.079	  0.126	  1.031	 -0.251	 -1.772	 -9.809	 -0.013	  0.010	  0.006	 29.200	 98.753	 -0.590
63772	  0.078	  0.121	  1.029	  0.415	 -1.717	 -9.538	 -0.015	  0.081	  0.041	 29.200	 98.749	 -0.229
63822	  0.076	  0.125	  1.033	  0.254	 -1.909	 -9.688	 -0.011	  0.161	  0.021	 29.200	 98.738	  0.765
63872	  0.069	  0.120	  1.028	  0.161	 -1.473	 -9.548	 -0.028	  0.176	  0.103	 29.200	 98.742	  0.404
63922	  0.066	  0.116	  1.028	  1.289	 -1.857	 -9.400	 -0.023	  0.084	  0.187	 29.200	 98.738	  0.765
63972	  0.070	  0.114	  1.026	  0.590	 -1.834	 -9.528	 -0.006	 -0.010	  0.191	 29.200	 98.731	  1.396
64022	  0.075	  0.109	  1.025	  0.304	 -1.657	 -9.646	 -0.012	  0.014	  0.315	 29.200	 98.738	  0.765
64072	  0.075	  0.113	  1.026	  0.532	 -1.441	 -9.444	 -0.026	  0.075	  0.255	 29.200	 98.742	  0.404
64121	  0.085	  0.109	  1.023	  1.838	 -1.628	 -9.131	  0.001	 -0.222	  0.302	 29.200	 98.742	  0.404
64172	  0.104	  0.107	  1.026	 -0.150	 -1.717	 -10.288	 -0.051	 -0.311	  0.413	 29.200	 98.753	 -0.590
64221	  0.113	  0.099	  1.021	 -0.134	 -2.211	 -10.170	 -0.095	 -0.287	  0.523	 29.200	 98.753	 -0.590
64272	  0.128	  0.091	  1.002	  0.618	 -2.387	 -10.516	 -0.261	 -0.351	  0.270	 29.200	 98.753	 -0.590
64321	  0.133	  0.085	  0.972	 -0.345	 -1.716	 -9.703	 -0.293	 -0.274	  0.175	 29.200	 98.742	  0.404
64371	  0.143	  0.075	  0.939	 -0.374	 -1.477	 -9.521	 -0.300	 -0.325	  0.105	 29.200	 98.726	  1.848
64421	  0.143	  0.070	  0.915	  0.174	 -1.373	 -9.533	 -0.214	 -0.083	  0.008	 29.200	 98.742	  0.404
64471	  0.133	  0.059	  0.883	 -0.508	 -1.072	 -9.576	 -0.282	  0.118	 -0.173	 29.200	 98.742	  0.404
64521	  0.109	  0.062	  0.862	  0.250	 -0.491	 -9.142	 -0.059	  0.262	 -0.241	 29.200	 98.738	  0.765
64571	  0.078	  0.057	  0.858	 -1.269	 -0.775	 -9.953	 -0.313	  0.660	 -0.005	 29.200	 98.742	  0.404
64621	  0.037	  0.050	  0.846	 -0.436	 -0.121	 -8.530	 -0.328	  0.764	 -0.011	 29.200	 98.742	  0.404
64671	  0.007	  0.034	  0.840	 -0.214	 -0.379	 -8.782	 -0.320	  0.417	  0.555	 29.200	 98.742	  0.404
64721	  0.012	  0.023	  0.841	  1.003	 -0.713	 -9.378	 -0.146	 -0.449	  0.407	 29.200	 98.738	  0.765
64771	  0.038	  0.021	  0.833	  0.537	 -0.519	 -11.618	 -0.034	 -0.657	  0.225	 29.200	 98.742	  0.404
64821	  0.060	  0.012	  0.820	  1.850	  0.015	 -12.756	 -0.174	 -0.409	 -0.014	 29.200	 98.753	 -0.590
64871	  0.077	  0.018	  0.768	  0.734	 -1.135	 -13.767	 -0.034	 -0.271	  0.030	 29.200	 98.742	  0.404
64921	  0.092	  0.009	  0.694	  1.355	 -0.014	 -10.516	 -0.618	 -0.290	 -0.409	 29.200	 98.742	  0.404
64971	  0.108	  0.005	  0.632	 -4.015	  0.535	 -4.600	 -0.309	  0.090	 -0.041	 29.200	 98.742	  0.404
65021	  0.089	 -0.003	  0.621	 -4.459	  0.301	  3.234	  0.041	  1.219	  0.009	 29.200	 98.742	  0.404
65071	  0.031	  0.008	  0.673	  1.050	  0.966	 -9.018	  0.383	  0.931	 -0.071	 29.200	 98.742	  0.404
65121	  0.037	  0.002	  0.704	  8.749	 -3.610	 -34.842	 -0.066	 -1.651	 -0.424	 29.200	 98.742	  0.404
65171	  0.073	 -0.006	  0.618	 -1.563	 -0.340	 -3.905	 -0.829	  0.076	 -0.039	 29.200	 98.742	  0.404
65221	  0.054	 -0.003	  0.588	 -11.909	 -0.289	 15.347	  0.145	  1.851	  0.156	 29.200	 98.742	  0.404
65271	 -0.048	  0.008	  0.659	  5.419	  0.053	 -12.621	  1.769	  1.027	 -0.551	 29.200	 98.753	 -0.590
65321	 -0.023	  0.038	  0.702	  1.362	 -2.411	 -34.310	  0.038	 -2.278	 -0.364	 29.200	 98.753	 -0.590
65371	  0.022	  0.038	  0.619	 -8.415	  0.162	  5.439	 -1.087	  1.113	 -0.160	 29.200	 98.742	  0.404
65421	 -0.025	  0.012	  0.626	 -4.105	  3.060	  9.433	  0.591	  0.793	 -0.344	 29.200	 98.731	  1.396
65471	 -0.004	  0.035	  0.710	 13.897	 -4.829	 -40.694	  0.492	 -2.581	 -0.116	 29.200	 98.753	 -0.590
65521	  0.051	  0.006	  0.645	 -2.108	 -2.218	 -3.767	 -1.640	  0.707	 -0.155	 29.200	 98.753	 -0.590
65571	 -0.001	 -0.020	  0.633	 -6.432	  1.314	 11.262	 -0.010	  1.808	 -0.756	 29.200	 98.742	  0.404
65621	 -0.024	  0.002	  0.689	 10.747	 -0.560	 -32.359	  1.449	 -2.319	 -0.183	 29.200	 98.742	  0.404
65671	  0.043	  0.017	  0.645	 -1.019	 -3.015	 -8.658	 -1.014	  0.241	  0.153	 29.200	 98.742	  0.404
65721	  0.006	 -0.013	  0.627	 -4.867	  0.984	 -0.639	 -0.712	  1.535	 -0.418	 29.200	 98.742	  0.404
65771	 -0.021	 -0.012	  0.635	  0.516	 -0.259	 -17.409	  0.831	 -0.263	  0.105	 29.200	 98.753	 -0.590
65821	  0.027	  0.004	  0.619	 -0.796	  0.322	 -19.411	 -0.407	 -1.161	  0.132	 29.300	 98.746	  0.042
65871	  0.092	  0.001	  0.576	 -0.925	 -0.039	 -14.019	 -0.538	 -0.225	  0.175	 29.200	 98.731	  1.396
65921	  0.146	  0.010	  0.536	 -1.775	 -0.841	 -8.194	 -0.482	 -0.504	  0.142	 29.200	 98.753	 -0.590
65971	  0.210	  0.023	  0.520	 -1.846	 -0.318	 -5.722	 -0.442	 -0.781	 -0.268	 29.300	 98.735	  1.035
66021	  0.276	  0.025	  0.501	 -2.858	 -0.165	 -4.513	 -0.507	 -1.245	 -0.455	 29.200	 98.742	  0.404
66071	  0.359	  0.014	  0.487	 -2.612	  0.802	 -3.403	 -0.061	 -1.330	 -0.132	 29.200	 98.735	  1.035
66121	  0.443	  0.008	  0.496	 -2.447	 -0.255	 -6.277	  0.349	 -0.831	 -0.107	 29.300	 98.746	  0.042
66171	  0.484	  0.019	  0.551	 -1.288	  0.794	 -6.175	  0.552	 -0.272	 -0.452	 29.200	 98.742	  0.404
66221	  0.484	  0.019	  0.608	 -0.342	  0.639	 -8.744	  0.196	 -0.110	 -0.001	 29.300	 98.735	  1.035
66271	  0.440	  0.019	  0.661	  0.472	  1.322	 -8.344	 -0.059	  0.234	 -0.009	 29.200	 98.731	  1.396
66321	  0.392	  0.019	  0.679	  0.900	  1.800	 -10.136	  0.052	  0.014	 -0.335	 29.300	 98.746	  0.042
66371	  0.346	  0.032	  0.679	 -0.002	  1.215	 -10.247	  0.150	  0.607	 -0.516	 29.200	 98.742	  0.404
66421	  0.292	  0.039	  0.683	 -0.420	  1.044	 -9.604	  0.058	  0.820	 -0.394	 29.200	 98.742	  0.404
66471	  0.256	  0.050	  0.684	 -1.185	  0.859	 -11.325	 -0.255	  0.494	 -0.165	 29.300	 98.746	  0.042
66521	  0.218	  0.045	  0.686	  0.443	 -0.030	 -10.160	  0.225	  0.753	 -0.218	 29.300	 98.746	  0.042
66571	  0.191	  0.047	  0.690	 -0.237	  1.158	 -9.766	  0.059	  0.611	 -0.142	 29.300	 98.735	  1.035
66621	  0.210	  0.058	  0.678	 -12.548	 -1.660	 -12.036	 -0.233	 -2.237	 -0.530	 29.300	 98.735	  1.035
66671	  0.254	  0.053	  0.653	 -2.287	 -1.123	 -12.568	 -0.009	 -0.987	  0.097	 29.200	 98.742	  0.404
66721	  0.279	  0.038	  0.645	  0.291	 -0.251	 -10.781	 -0.561	 -0.313	  0.234	 29.300	 98.746	  0.042
66771	  0.291	  0.015	  0.650	 -0.734	  2.173	 -9.374	 -0.361	  0.112	  0.082	 29.300	 98.746	  0.042
66821	  0.279	  0.026	  0.650	 -2.095	  0.792	 -8.916	  0.399	  0.207	 -0.210	 29.300	 98.746	  0.042
66872	  0.266	  0.037	  0.649	 -1.357	  0.700	 -9.361	  0.276	  0.536	 -0.229	 29.300	 98.746	  0.042
66921	  0.250	  0.051	  0.651	 -3.480	 -0.400	 -7.726	  0.318	  0.601	  0.154	 29.300	 98.757	 -0.951
66972	  0.216	  0.067	  0.656	 -4.404	  0.743	 -8.805	  0.323	  1.741	 -0.067	 29.200	 98.731	  1.396
67022	  0.155	  0.073	  0.676	 -0.741	 -0.367	 -10.367	 -0.422	  1.200	 -0.251	 29.300	 98.735	  1.035
67072	  0.112	  0.045	  0.682	 -0.181	  1.477	 -8.561	 -0.169	  0.825	 -0.200	 29.200	 98.746	  0.042
67121	  0.086	  0.058	  0.683	  0.467	 -0.434	 -10.058	  0.256	  0.456	 -0.558	 29.300	 98.735	  1.035
67172	  0.068	  0.058	  0.687	  0.774	  0.779	 -9.921	 -0.158	  0.395	 -0.029	 29.300	 98.746	  0.042
67222	  0.055	  0.062	  0.680	 -0.535	  1.438	 -9.032	  0.247	  0.231	  0.204	 29.300	 98.735	  1.035
67272	  0.041	  0.087	  0.673	  0.774	 -0.587	 -10.562	  1.207	  0.763	  0.807	 29.300	 98.746	  0.042
67322	  0.010	  0.109	  0.668	  3.313	 -1.721	 -11.162	 -0.125	  0.785	  0.501	 29.300	 98.746	  0.042
67372	 -0.011	  0.091	  0.667	  0.963	 -0.544	 -9.416	 -0.788	  0.518	 -0.301	 29.300	 98.746	  0.042
67422	 -0.031	  0.080	  0.680	  2.052	  1.175	 -8.400	 -0.383	  0.351	  0.439	 29.300	 98.735	  1.035
67472	 -0.032	  0.071	  0.672	  2.783	  0.048	 -8.175	  0.092	  0.119	  0.639	 29.300	 98.735	  1.035
67522	 -0.026	  0.091	  0.673	 -1.569	  2.835	 -7.594	  0.249	 -0.231	  0.280	 29.300	 98.735	  1.035
67572	 -0.028	  0.097	  0.668	  2.298	 -1.935	 -9.432	 -0.179	  0.167	  0.684	 29.300	 98.735	  1.035
67622	 -0.027	  0.085	  0.670	  1.481	 -0.383	 -9.992	 -0.205	  0.312	  0.351	 29.300	 98.746	  0.042
67672	 -0.046	  0.089	  0.669	  2.901	  1.669	 -11.216	  0.372	  0.031	  0.249	 29.200	 98.742	  0.404
67722	 -0.041	  0.094	  0.668	  1.318	 -1.727	 -10.384	 -0.119	  0.021	  0.124	 29.300	 98.746	  0.042
67772	 -0.044	  0.089	  0.668	  1.766	  0.412	 -9.314	  0.123	 -0.049	  0.145	 29.300	 98.746	  0.042
67822	 -0.038	  0.089	  0.665	  2.377	  0.138	 -9.323	  0.167	 -0.029	  0.403	 29.300	 98.739	  0.674
67872	 -0.035	  0.106	  0.662	  2.592	 -0.854	 -9.466	  0.305	 -0.085	  0.141	 29.300	 98.739	  0.674
67921	 -0.028	  0.118	  0.663	  2.277	  0.197	 -8.980	  0.490	 -0.182	  0.098	 29.300	 98.739	  0.674
67971	 -0.018	  0.140	  0.655	  1.375	 -2.166	 -10.368	  0.340	 -0.205	  0.093	 29.300	 98.735	  1.035
68021	 -0.015	  0.137	  0.651	  1.905	 -0.789	 -9.505	  0.075	 -0.041	  0.020	 29.300	 98.750	 -0.319
68071	 -0.012	  0.140	  0.653	  1.776	 -1.271	 -9.590	  0.038	 -0.020	  0.015	 29.300	 98.746	  0.042
68121	 -0.012	  0.150	  0.652	  1.932	 -0.981	 -9.435	  0.005	 -0.002	  0.006	 29.300	 98.746	  0.042
68171	 -0.010	  0.149	  0.652	  1.907	 -1.039	 -9.564	  0.008	 -0.005	  0.006	 29.300	 98.735	  1.035
68221	 -0.011	  0.141	  0.651	  1.923	 -0.976	 -9.525	  0.001	  0.005	  0.005	 29.300	 98.761	 -1.312
68272	 -0.010	  0.140	  0.650	  1.915	 -0.965	 -9.506	  0.001	 -0.002	  0.005	 29.300	 98.750	 -0.319
68321	 -0.013	  0.147	  0.651	  1.935	 -1.016	 -9.414	  0.003	  0.000	  0.006	 29.300	 98.746	  0.042
68371	 -0.012	  0.148	  0.654	  1.946	 -1.056	 -9.463	 -0.006	 -0.000	  0.004	 29.300	 98.750	 -0.319
68421	 -0.014	  0.144	  0.655	  1.917	 -1.123	 -9.467	 -0.004	  0.007	  0.003	 29.300	 98.735	  1.035
68471	 -0.012	  0.138	  0.651	  1.903	 -1.045	 -9.513	 -0.004	  0.000	  0.004	 29.300	 98.739	  0.674
68521	 -0.011	  0.140	  0.653	  1.926	 -1.006	 -9.452	 -0.002	 -0.000	  0.003	 29.300	 98.739	  0.674
68571	 -0.013	  0.141	  0.656	  1.949	 -0.990	 -9.461	 -0.004	  0.005	  0.004	 29.300	 98.750	 -0.319
68621	 -0.013	  0.142	  0.655	  1.872	 -0.951	 -9.528	 -0.003	  0.004	  0.004	 29.300	 98.739	  0.674
68671	 -0.012	  0.142	  0.652	  1.927	 -1.010	 -9.471	 -0.006	  0.004	  0.004	 29.300	 98.739	  0.674
68721	 -0.011	  0.140	  0.654	  1.891	 -1.027	 -9.482	 -0.005	  0.005	  0.003	 29.300	 98.750	 -0.319
68771	 -0.010	  0.140	  0.653	  1.905	 -1.016	 -9.489	 -0.004	  0.000	  0.003	 29.300	 98.750	 -0.319
68821	 -0.012	  0.136	  0.653	  1.918	 -1.056	 -9.447	 -0.003	  0.002	  0.003	 29.300	 98.739	  0.674
68871	 -0.014	  0.144	  0.650	  1.891	 -0.998	 -9.503	 -0.005	  0.002	  0.003	 29.300	 98.739	  0.674
68921	 -0.012	  0.150	  0.649	  1.926	 -0.529	 -9.571	  0.004	 -0.001	  0.008	 29.300	 98.750	 -0.319
68971	 -0.012	  0.141	  0.649	  2.083	 -0.985	 -9.276	  0.000	 -0.004	  0.005	 29.300	 98.728	  1.668
69021	 -0.012	  0.145	  0.652	  1.881	 -0.849	 -9.488	 -0.006	  0.007	  0.003	 29.300	 98.750	 -0.319
69071	 -0.012	  0.142	  0.651	  1.882	 -1.048	 -9.522	 -0.004	  0.008	  0.003	 29.300	 98.739	  0.674
69121	 -0.013	  0.137	  0.654	  1.906	 -0.991	 -9.473	 -0.005	 -0.000	  0.004	 29.300	 98.739	  0.674
69171	 -0.010	  0.140	  0.653	  1.874	 -1.048	 -9.491	 -0.002	  0.000	  0.004	 29.300	 98.750	 -0.319
69221	 -0.012	  0.140	  0.653	  1.909	 -1.040	 -9.482	 -0.005	  0.003	  0.003	 29.300	 98.739	  0.674
69271	 -0.012	  0.136	  0.650	  1.934	 -0.947	 -9.503	 -0.006	  0.007	  0.003	 29.300	 98.739	  0.674
69321	 -0.013	  0.139	  0.645	  2.102	 -1.061	 -9.265	 -0.003	 -0.004	  0.006	 29.300	 98.739	  0.674
69371	 -0.010	  0.142	  0.655	  1.948	 -0.955	 -9.505	 -0.001	 -0.002	  0.005	 29.300	 98.739	  0.674
69421	 -0.012	  0.140	  0.651	  1.890	 -1.039	 -9.491	 -0.009	  0.009	  0.003	 29.300	 98.739	  0.674
69471	 -0.012	  0.147	  0.651	  1.912	 -1.264	 -9.539	  0.001	 -0.000	  0.004	 29.300	 98.743	  0.314
69521	 -0.012	  0.142	  0.649	  1.887	 -0.949	 -9.361	 -0.007	 -0.001	  0.005	 29.300	 98.750	 -0.319
69571	 -0.012	  0.144	  0.649	  1.960	 -0.852	 -9.391	 -0.006	  0.010	  0.004	 29.300	 98.743	  0.314
69621	 -0.013	  0.147	  0.652	  2.102	 -1.021	 -9.399	 -0.009	  0.004	  0.004	 29.300	 98.739	  0.674
69671	 -0.012	  0.140	  0.649	  1.515	 -0.753	 -9.927	  0.000	  0.014	  0.001	 29.300	 98.739	  0.674
69721	 -0.012	  0.141	  0.646	  1.962	 -0.866	 -9.476	  0.002	  0.001	  0.007	 29.300	 98.739	  0.674
69771	 -0.012	  0.138	  0.655	  1.893	 -1.299	 -9.505	 -0.004	 -0.002	  0.011	 29.300	 98.728	  1.668
69821	 -0.011	  0.142	  0.649	  1.584	 -0.824	 -9.984	 -0.001	  0.007	  0.008	 29.300	 98.739	  0.674
69871	 -0.010	  0.144	  0.651	  2.055	 -1.383	 -9.610	  0.001	  0.004	  0.011	 29.300	 98.739	  0.674
69921	 -0.012	  0.141	  0.650	  2.125	 -0.887	 -9.234	 -0.004	  0.008	  0.004	 29.300	 98.739	  0.674
69971	 -0.011	  0.144	  0.648	  2.063	 -1.028	 -9.342	 -0.006	 -0.001	  0.004	 29.300	 98.750	 -0.319
70021	 -0.010	  0.149	  0.655	  1.093	 -0.645	 -9.471	  0.002	  0.061	  0.038	 29.300	 98.750	 -0.319
70071	 -0.009	  0.143	  0.654	  1.837	 -0.938	 -9.567	 -0.009	 -0.011	  0.009	 29.300	 98.743	  0.314
70121	 -0.012	  0.145	  0.652	  2.318	 -0.979	 -9.052	 -0.007	 -0.002	 -0.003	 29.300	 98.743	  0.314
70171	 -0.012	  0.146	  0.648	  2.344	 -0.822	 -8.865	  0.107	 -0.049	  0.005	 29.300	 99.047	 -27.085
70221	 -0.009	  0.143	  0.648	  2.002	 -1.282	 -8.579	  0.031	  0.035	 -0.014	 29.300	 98.750	 -0.319
70271	 -0.010	  0.142	  0.647	  2.198	 -0.694	 -9.226	  0.015	 -0.003	  0.008	 29.300	 98.743	  0.314
70321	 -0.009	  0.139	  0.653	  1.931	 -1.106	 -9.439	 -0.012	  0.009	  0.002	 29.300	 98.739	  0.674
70371	 -0.013	  0.146	  0.646	  2.081	 -0.771	 -9.280	 -0.014	 -0.022	 -0.012	 29.300	 98.806	 -5.373
70421	 -0.012	  0.143	  0.655	  1.900	 -0.740	 -9.417	  0.007	 -0.003	  0.005	 29.300	 98.761	 -1.312
70471	 -0.012	  0.141	  0.646	  1.961	 -0.990	 -9.473	 -0.011	 -0.000	  0.002	 29.300	 98.766	 -1.763
70521	 -0.011	  0.139	  0.653	  1.944	 -1.146	 -9.511	 -0.021	  0.015	 -0.003	 29.300	 98.766	 -1.763
70571	 -0.008	  0.152	  0.649	  1.416	 -0.957	 -9.899	 -0.002	 -0.001	  0.008	 29.300	 98.750	 -0.319
70621	 -0.011	  0.142	  0.646	  1.926	 -0.979	 -9.426	 -0.001	  0.001	  0.006	 29.300	 98.750	 -0.319
70671	 -0.010	  0.139	  0.653	  1.561	 -0.872	 -8.802	  0.002	  0.024	  0.053	 29.300	 98.945	 -17.903
70721	 -0.008	  0.144	  0.653	  2.489	 -1.460	 -9.480	 -0.041	  0.049	 -0.008	 29.300	 99.002	 -23.036
70771	 -0.009	  0.141	  0.649	  2.166	 -0.900	 -9.307	 -0.076	  0.027	  0.267	 29.300	 99.114	 -33.110
70821	 -0.008	  0.143	  0.650	  1.574	 -1.142	 -10.060	 -0.108	  0.081	  0.383	 29.300	 99.290	 -48.915
70871	 -0.006	  0.136	  0.650	  2.690	 -0.948	 -8.504	  0.068	 -0.087	  0.121	 29.300	 99.463	 -64.416
70921	 -0.004	  0.142	  0.652	  1.640	 -1.732	 -9.662	 -0.016	  0.006	  0.066	 29.300	 99.575	 -74.434
70971	 -0.007	  0.134	  0.655	  1.351	 -0.240	 -9.590	 -0.050	  0.031	 -0.004	 29.300	 99.620	 -78.457
71021	 -0.005	  0.136	  0.645	  1.739	 -1.294	 -9.642	 -0.009	  0.020	  0.002	 29.300	 99.627	 -79.082
71071	 -0.008	  0.135	  0.651	  2.046	 -0.981	 -9.267	  0.011	 -0.021	  0.004	 29.300	 99.620	 -78.457
71121	 -0.005	  0.139	  0.651	  2.005	 -0.942	 -9.367	  0.010	 -0.009	 -0.036	 29.300	 99.609	 -77.474
71171	 -0.007	  0.136	  0.650	  1.956	 -1.058	 -9.405	  0.002	 -0.005	 -0.017	 29.300	 99.590	 -75.776
71221	 -0.006	  0.141	  0.653	  2.005	 -1.261	 -9.583	  0.000	  0.020	  0.015	 29.300	 99.552	 -72.379
71271	 -0.006	  0.139	  0.652	  1.865	 -1.129	 -9.499	 -0.011	  0.009	 -0.007	 29.300	 99.530	 -70.411
71321	 -0.004	  0.136	  0.652	  1.913	 -1.083	 -9.506	 -0.013	  0.011	 -0.005	 29.300	 99.507	 -68.354
71371	 -0.005	  0.137	  0.652	  1.946	 -1.167	 -9.418	 -0.007	  0.005	  0.000	 29.300	 99.463	 -64.416
71421	 -0.005	  0.142	  0.655	  1.876	 -1.216	 -9.676	  0.008	 -0.022	 -0.071	 29.300	 99.440	 -62.357
71471	 -0.008	  0.142	  0.651	  1.788	 -1.178	 -9.425	  0.045	 -0.022	 -0.134	 29.300	 99.418	 -60.387
71521	 -0.009	  0.140	  0.650	  1.771	 -1.386	 -9.768	 -0.013	  0.013	 -0.219	 29.300	 99.384	 -57.341
71571	 -0.010	  0.143	  0.652	  2.002	 -0.096	 -8.908	  0.042	 -0.053	  0.137	 29.300	 99.361	 -55.280
71621	 -0.004	  0.139	  0.646	  2.193	 -0.946	 -9.325	  0.018	  0.013	  0.058	 29.300	 99.343	 -53.667
71670	 -0.005	  0.140	  0.650	  2.070	 -1.029	 -9.413	 -0.008	  0.006	  0.004	 29.300	 99.305	 -50.260
71720	 -0.007	  0.136	  0.653	  1.845	 -1.168	 -9.575	  0.006	 -0.001	  0.007	 29.300	 99.276	 -47.658
71771	 -0.006	  0.140	  0.653	  1.854	 -1.139	 -9.518	  0.008	  0.000	  0.007	 29.300	 99.249	 -45.236
71820	 -0.005	  0.138	  0.647	  1.895	 -1.072	 -9.487	 -0.003	 -0.001	  0.004	 29.300	 99.226	 -43.172
71870	 -0.004	  0.140	  0.651	  1.905	 -0.997	 -9.495	 -0.003	  0.003	  0.003	 29.300	 99.204	 -41.196
71920	 -0.006	  0.143	  0.650	  1.915	 -1.046	 -9.495	 -0.007	  0.007	  0.003	 29.300	 99.181	 -39.131
71970	 -0.005	  0.141	  0.652	  1.872	 -1.081	 -9.509	 -0.006	  0.005	  0.003	 29.300	 99.170	 -38.142
72020	 -0.006	  0.143	  0.652	  1.888	 -1.055	 -9.465	 -0.004	  0.001	  0.004	 29.300	 99.148	 -36.166
72070	 -0.005	  0.139	  0.646	  1.882	 -1.046	 -9.440	 -0.003	  0.002	  0.004	 29.300	 99.114	 -33.110
72120	 -0.010	  0.140	  0.650	  1.863	 -1.051	 -9.483	 -0.005	  0.003	  0.002	 29.300	 99.103	 -32.122
72170	 -0.007	  0.144	  0.651	  1.912	 -1.031	 -9.504	 -0.005	  0.002	  0.003	 29.300	 99.084	 -30.414
72220	 -0.006	  0.143	  0.645	  1.887	 -1.081	 -9.518	 -0.004	  0.003	  0.004	 29.300	 99.069	 -29.064
72270	 -0.004	  0.141	  0.654	  1.899	 -1.053	 -9.458	 -0.005	  0.003	  0.003	 29.300	 99.058	 -28.075
72320	 -0.007	  0.142	  0.650	  1.902	 -1.058	 -9.474	 -0.003	  0.002	  0.003	 29.300	 99.035	 -26.006
72370	 -0.007	  0.141	  0.651	  1.905	 -1.042	 -9.510	 -0.005	  0.002	  0.003	 29.300	 99.024	 -25.016
72420	 -0.006	  0.136	  0.650	  1.881	 -1.047	 -9.504	 -0.004	  0.002	  0.004	 29.300	 99.013	 -24.026
72470	 -0.004	  0.149	  0.652	  1.882	 -1.033	 -9.497	 -0.003	  0.001	  0.003	 29.300	 98.990	 -21.956
72520	 -0.004	  0.141	  0.646	  1.886	 -1.048	 -9.465	 -0.004	  0.002	  0.003	 29.300	 98.983	 -21.326
72570	 -0.008	  0.138	  0.648	  1.900	 -1.054	 -9.483	 -0.004	  0.003	  0.003	 29.300	 98.979	 -20.966
72620	 -0.005	  0.143	  0.653	  1.866	 -1.043	 -9.491	 -0.005	  0.003	  0.004	 29.300	 98.972	 -20.335
72670	 -0.005	  0.140	  0.649	  1.911	 -1.054	 -9.521	 -0.004	  0.003	  0.003	 29.300	 98.961	 -19.345
72721	 -0.009	  0.139	  0.649	  1.849	 -1.023	 -9.452	 -0.003	  0.004	  0.004	 29.300	 98.950	 -18.354
72771	 -0.008	  0.145	  0.644	  1.887	 -1.033	 -9.459	 -0.004	  0.002	  0.004	 29.300	 98.938	 -17.273
72821	 -0.006	  0.137	  0.651	  1.887	 -1.056	 -9.472	 -0.004	  0.003	  0.003	 29.300	 98.934	 -16.913
72871	 -0.006	  0.149	  0.651	  1.936	 -1.064	 -9.480	 -0.006	  0.003	  0.004	 29.300	 98.923	 -15.921
72921	 -0.006	  0.143	  0.654	  1.931	 -1.083	 -9.485	 -0.007	  0.003	  0.002	 29.300	 98.916	 -15.291
72971	 -0.007	  0.134	  0.652	  1.882	 -1.071	 -9.490	 -0.003	  0.002	  0.004	 29.300	 98.871	 -11.235
73021	 -0.005	  0.141	  0.647	  1.900	 -1.090	 -9.491	 -0.004	  0.002	  0.005	 29.300	 98.815	 -6.185
73071	 -0.006	  0.138	  0.650	  1.911	 -1.076	 -9.486	 -0.003	  0.002	  0.003	 29.300	 98.691	  5.010
73121	 -0.007	  0.140	  0.653	  1.883	 -1.010	 -9.505	 -0.005	  0.003	  0.003	 29.300	 98.556	 17.217
73171	 -0.008	  0.139	  0.650	  1.871	 -1.088	 -9.477	 -0.004	  0.001	  0.003	 29.300	 98.387	 32.526
73221	 -0.006	  0.139	  0.649	  1.877	 -1.018	 -9.465	 -0.003	  0.001	  0.004	 29.300	 98.189	 50.502
73272	 -0.004	  0.139	  0.650	  1.887	 -1.068	 -9.531	 -0.003	  0.002	  0.003	 29.300	 97.983	 69.251
73321	 -0.005	  0.144	  0.652	  1.886	 -1.055	 -9.512	 -0.006	  0.002	  0.002	 29.300	 97.747	 90.788
73371	 -0.007	  0.142	  0.654	  1.901	 -1.050	 -9.467	 -0.005	  0.004	  0.002	 29.300	 97.522	 111.379
73421	 -0.009	  0.145	  0.647	  1.899	 -1.038	 -9.478	 -0.005	  0.002	  0.004	 29.300	 97.263	 135.152
73471	 -0.005	  0.139	  0.649	  1.880	 -1.021	 -9.463	 -0.004	  0.003	  0.005	 29.300	 97.050	 154.759
73521	 -0.005	  0.147	  0.654	  1.906	 -1.035	 -9.469	 -0.004	  0.001	  0.003	 29.300	 96.825	 175.527
73571	 -0.004	  0.143	  0.653	  1.903	 -1.051	 -9.487	 -0.004	  0.003	  0.004	 29.300	 96.589	 197.371
73621	 -0.006	  0.143	  0.651	  1.907	 -1.065	 -9.494	 -0.005	  0.004	  0.003	 29.300	 96.353	 219.279
73671	 -0.005	  0.136	  0.652	  1.875	 -1.053	 -9.470	 -0.003	  0.002	  0.004	 29.300	 96.139	 239.201
73721	 -0.008	  0.138	  0.652	  1.881	 -1.047	 -9.453	 -0.003	  0.001	  0.004	 29.300	 95.903	 261.232
73771	 -0.007	  0.140	  0.651	  1.894	 -1.030	 -9.445	 -0.004	  0.002	  0.003	 29.300	 95.701	 280.140
73821	 -0.005	  0.138	  0.650	  1.911	 -1.063	 -9.479	 -0.005	  0.002	  0.002	 29.300	 95.509	 298.156
73871	 -0.008	  0.139	  0.651	  1.881	 -1.051	 -9.475	 -0.004	  0.003	  0.002	 29.300	 95.322	 315.745
73921	 -0.006	  0.138	  0.654	  1.902	 -1.050	 -9.482	 -0.005	  0.003	  0.004	 29.300	 95.120	 334.790
73971	 -0.007	  0.140	  0.651	  1.878	 -1.037	 -9.484	 -0.004	  0.002	  0.003	 29.300	 94.925	 353.221
74021	 -0.005	  0.141	  0.652	  1.885	 -1.050	 -9.482	 -0.003	  0.004	  0.004	 29.300	 94.738	 370.940
74071	 -0.008	  0.141	  0.652	  1.909	 -1.041	 -9.460	 -0.005	  0.002	  0.004	 29.300	 94.547	 389.080
74121	 -0.007	  0.139	  0.646	  1.894	 -1.044	 -9.461	 -0.005	  0.003	  0.004	 29.300	 94.351	 407.740
74171	 -0.006	  0.144	  0.651	  1.892	 -1.047	 -9.462	 -0.004	  0.003	  0.003	 29.300	 94.164	 425.586
74221	 -0.007	  0.139	  0.650	  1.899	 -1.065	 -9.495	 -0.004	  0.003	  0.004	 29.300	 93.962	 444.912
74271	 -0.004	  0.143	  0.651	  1.909	 -1.033	 -9.490	 -0.005	  0.003	  0.004	 29.300	 93.782	 462.174
74321	 -0.006	  0.140	  0.654	  1.891	 -1.072	 -9.472	 -0.004	  0.003	  0.004	 29.300	 93.591	 480.534
74371	 -0.005	  0.140	  0.645	  1.880	 -1.065	 -9.477	 -0.005	  0.003	  0.003	 29.300	 93.396	 499.326
74421	 -0.005	  0.140	  0.653	  1.895	 -1.033	 -9.511	 -0.005	  0.002	  0.003	 29.300	 93.197	 518.552
74471	 -0.005	  0.139	  0.650	  1.904	 -1.030	 -9.505	 -0.004	  0.002	  0.002	 29.300	 93.006	 537.050
74521	 -0.006	  0.140	  0.650	  1.885	 -1.048	 -9.502	 -0.005	  0.003	  0.003	 29.300	 92.804	 556.663
74571	 -0.010	  0.142	  0.647	  1.878	 -1.051	 -9.463	 -0.004	  0.003	  0.003	 29.300	 92.609	 575.644
74621	 -0.005	  0.145	  0.651	  1.898	 -1.046	 -9.467	 -0.003	  0.003	  0.003	 29.300	 92.433	 592.818
74671	 -0.008	  0.138	  0.653	  1.883	 -1.045	 -9.499	 -0.005	  0.003	  0.004	 29.300	 92.231	 612.575
74721	 -0.004	  0.148	  0.650	  1.877	 -1.037	 -9.475	 -0.004	  0.002	  0.002	 29.300	 92.028	 632.483
74771	 -0.006	  0.142	  0.652	  1.914	 -1.054	 -9.483	 -0.005	  0.004	  0.004	 29.300	 91.837	 651.262
74821	 -0.005	  0.143	  0.649	  1.898	 -1.046	 -9.487	 -0.004	  0.003	  0.004	 29.300	 91.635	 671.173
74871	 -0.006	  0.137	  0.653	  1.888	 -1.051	 -9.456	 -0.004	  0.002	  0.003	 29.300	 91.444	 690.048
74921	 -0.005	  0.142	  0.645	  1.892	 -1.040	 -9.495	 -0.005	  0.001	  0.004	 29.300	 91.230	 711.252
74971	 -0.008	  0.135	  0.650	  1.875	 -1.053	 -9.497	 -0.004	  0.004	  0.003	 29.300	 91.050	 729.133
75021	 -0.006	  0.136	  0.650	  1.894	 -1.025	 -9.491	 -0.004	  0.002	  0.002	 29.300	 90.848	 749.250
75071	 -0.008	  0.143	  0.654	  1.911	 -1.057	 -9.475	 -0.004	  0.003	  0.003	 29.300	 90.657	 768.320
75121	 -0.006	  0.141	  0.650	  1.906	 -1.027	 -9.483	 -0.005	  0.001	  0.003	 29.300	 90.454	 788.641
75171	 -0.007	  0.136	  0.649	  1.883	 -1.039	 -9.485	 -0.005	  0.003	  0.003	 29.300	 90.263	 807.810
75221	 -0.008	  0.135	  0.654	  1.880	 -1.034	 -9.448	 -0.005	  0.002	  0.003	 29.300	 90.076	 826.626
75271	 -0.005	  0.140	  0.652	  1.914	 -1.046	 -9.512	 -0.004	  0.004	  0.003	 29.300	 89.881	 846.295
75321	 -0.007	  0.139	  0.646	  1.915	 -1.026	 -9.526	 -0.003	  0.004	  0.002	 29.300	 89.690	 865.610
75371	 -0.008	  0.137	  0.648	  1.915	 -1.046	 -9.510	 -0.004	  0.002	  0.003	 29.300	 89.499	 884.974
75421	 -0.008	  0.138	  0.645	  1.891	 -1.054	 -9.489	 -0.004	  0.003	  0.004	 29.300	 89.307	 904.490
75471	 -0.008	  0.142	  0.648	  1.909	 -1.042	 -9.496	 -0.004	  0.003	  0.004	 29.300	 89.120	 923.545
75520	 -0.007	  0.139	  0.649	  1.893	 -1.045	 -9.486	 -0.002	  0.004	  0.003	 29.300	 88.940	 941.932
75571	 -0.007	  0.143	  0.650	  1.887	 -1.046	 -9.489	 -0.004	  0.002	  0.003	 29.300	 88.749	 961.492
75620	 -0.007	  0.137	  0.654	  1.936	 -1.069	 -9.481	 -0.003	  0.003	  0.003	 29.300	 88.565	 980.382
75670	 -0.004	  0.141	  0.646	  1.897	 -1.040	 -9.525	 -0.004	  0.004	  0.003	 29.300	 88.386	 998.803
75720	 -0.006	  0.136	  0.651	  1.892	 -1.062	 -9.496	 -0.005	  0.004	  0.003	 29.300	 88.198	 1018.199
75770	 -0.006	  0.150	  0.653	  1.891	 -1.019	 -9.486	 -0.004	  0.001	  0.003	 29.300	 88.018	 1036.816
75820	 -0.005	  0.139	  0.652	  1.911	 -1.047	 -9.480	 -0.005	  0.002	  0.003	 29.300	 87.827	 1056.619
75870	 -0.004	  0.144	  0.654	  1.892	 -1.037	 -9.497	 -0.004	  0.003	  0.003	 29.300	 87.659	 1074.082
75920	 -0.005	  0.147	  0.653	  1.919	 -1.059	 -9.477	 -0.004	  0.003	  0.004	 29.300	 87.479	 1092.835
75970	 -0.007	  0.138	  0.650	  1.880	 -1.032	 -9.511	 -0.004	  0.003	  0.003	 29.300	 87.299	 1111.633
76020	 -0.008	  0.142	  0.652	  1.895	 -1.040	 -9.485	 -0.005	  0.003	  0.003	 29.300	 87.108	 1131.633
76070	 -0.009	  0.142	  0.650	  1.900	 -1.039	 -9.504	 -0.005	  0.002	  0.003	 29.300	 86.939	 1149.371
76120	 -0.004	  0.146	  0.652	  1.879	 -1.065	 -9.490	 -0.003	  0.004	  0.003	 29.300	 86.748	 1169.469
76170	 -0.009	  0.137	  0.650	  1.895	 -1.062	 -9.476	 -0.004	  0.003	  0.003	 29.300	 86.590	 1186.135
76220	 -0.005	  0.142	  0.647	  1.923	 -1.068	 -9.491	 -0.004	  0.005	  0.004	 29.300	 86.399	 1206.328
76270	 -0.007	  0.135	  0.653	  1.904	 -1.064	 -9.532	 -0.004	  0.002	  0.003	 29.300	 86.231	 1224.135
76320	 -0.006	  0.141	  0.649	  1.892	 -1.026	 -9.488	 -0.005	  0.003	  0.003	 29.300	 86.051	 1243.259
76370	 -0.006	  0.139	  0.649	  1.906	 -1.041	 -9.484	 -0.004	  0.003	  0.002	 29.300	 85.878	 1261.686
76420	 -0.006	  0.146	  0.653	  1.906	 -1.057	 -9.473	 -0.003	  0.004	  0.004	 29.300	 85.691	 1281.652
76470	 -0.005	  0.142	  0.651	  1.897	 -1.043	 -9.520	 -0.004	  0.003	  0.003	 29.300	 85.545	 1297.277
76520	 -0.006	  0.139	  0.652	  1.918	 -1.043	 -9.481	 -0.005	  0.003	  0.003	 29.400	 85.365	 1316.585
76570	 -0.008	  0.139	  0.651	  1.880	 -1.054	 -9.519	 -0.004	  0.003	  0.003	 29.300	 85.208	 1333.464
76620	 -0.007	  0.143	  0.647	  1.900	 -1.041	 -9.496	 -0.006	  0.001	  0.003	 29.300	 85.039	 1351.676
76670	 -0.008	  0.145	  0.650	  1.895	 -1.034	 -9.473	 -0.005	  0.004	  0.004	 29.400	 84.874	 1369.498
76720	 -0.007	  0.140	  0.651	  1.905	 -1.033	 -9.493	 -0.002	  0.003	  0.002	 29.300	 84.690	 1389.422
76770	 -0.005	  0.143	  0.651	  1.910	 -1.030	 -9.454	 -0.004	  0.003	  0.004	 29.300	 84.533	 1406.463
76820	 -0.008	  0.140	  0.652	  1.881	 -1.054	 -9.473	 -0.005	  0.003	  0.003	 29.300	 84.364	 1424.848
76870	 -0.006	  0.140	  0.650	  1.883	 -1.058	 -9.526	 -0.004	  0.002	  0.003	 29.300	 84.207	 1441.967
76920	 -0.006	  0.137	  0.647	  1.889	 -1.044	 -9.492	 -0.004	  0.002	  0.003	 29.300	 84.042	 1460.000
76970	 -0.005	  0.141	  0.650	  1.904	 -1.039	 -9.452	 -0.005	  0.002	  0.004	 29.400	 83.884	 1477.307
77020	 -0.007	  0.141	  0.651	  1.919	 -1.044	 -9.489	 -0.004	  0.002	  0.002	 29.400	 83.723	 1494.982
77070	 -0.004	  0.145	  0.653	  1.915	 -1.050	 -9.500	 -0.005	  0.003	  0.005	 29.300	 83.566	 1512.258
77120	 -0.009	  0.138	  0.647	  1.903	 -1.041	 -9.477	 -0.004	  0.001	  0.004	 29.300	 83.409	 1529.573
77170	 -0.006	  0.140	  0.651	  1.906	 -1.048	 -9.489	 -0.004	  0.003	  0.004	 29.300	 83.240	 1548.254
77220	 -0.003	  0.154	  0.627	  1.954	 -1.093	 -9.495	 -0.005	  0.004	  0.004	 29.400	 83.097	 1564.097
77270	  0.001	  0.153	  0.628	  1.973	 -1.087	 -9.487	 -0.005	  0.003	  0.004	 29.400	 82.951	 1580.305
77320	  0.006	  0.150	  0.647	  1.918	 -1.041	 -9.479	 -0.005	  0.004	  0.004	 29.400	 82.794	 1597.773
77370	  0.004	  0.150	  0.631	  1.904	 -1.036	 -9.472	 -0.005	  0.005	  0.003	 29.300	 82.644	 1614.499
77420	  0.004	  0.154	  0.638	  1.905	 -1.054	 -9.483	 -0.005	  0.003	  0.003	 29.400	 82.475	 1633.386
77470	  0.001	  0.152	  0.640	  1.877	 -1.049	 -9.470	 -0.004	  0.003	  0.004	 29.400	 82.322	 1650.526
77520	  0.001	  0.151	  0.635	  1.902	 -1.042	 -9.488	 -0.004	  0.001	  0.003	 29.400	 82.164	 1668.265
77570	  0.003	  0.148	  0.639	  1.888	 -1.057	 -9.471	 -0.004	  0.002	  0.002	 29.400	 82.018	 1684.693
77620	  0.001	  0.149	  0.636	  1.889	 -1.049	 -9.490	 -0.003	  0.002	  0.003	 29.400	 81.849	 1703.754
77670	  0.001	  0.148	  0.634	  1.894	 -1.055	 -9.505	 -0.004	  0.003	  0.005	 29.400	 81.703	 1720.257
77720	  0.002	  0.153	  0.639	  1.910	 -1.056	 -9.480	 -0.005	  0.002	  0.003	 29.400	 81.546	 1738.043
77770	  0.002	  0.157	  0.635	  1.884	 -1.063	 -9.465	 -0.004	  0.003	  0.003	 29.400	 81.400	 1754.620
77820	  0.003	  0.158	  0.642	  1.921	 -1.038	 -9.492	 -0.004	  0.003	  0.003	 29.400	 81.234	 1773.511
77870	  0.002	  0.150	  0.634	  1.885	 -1.020	 -9.459	 -0.003	  0.003	  0.004	 29.400	 81.085	 1790.507
77921	  0.000	  0.150	  0.635	  1.911	 -1.057	 -9.516	 -0.005	  0.003	  0.004	 29.400	 80.927	 1808.569
77970	  0.001	  0.153	  0.635	  1.921	 -1.045	 -9.452	 -0.005	  0.001	  0.003	 29.400	 80.781	 1825.297
78020	  0.002	  0.152	  0.634	  1.897	 -1.046	 -9.522	 -0.005	  0.002	  0.004	 29.400	 80.624	 1843.326
78070	  0.002	  0.152	  0.635	  1.908	 -1.056	 -9.473	 -0.004	  0.004	  0.004	 29.400	 80.478	 1860.130
78120	  0.001	  0.155	  0.639	  1.905	 -1.060	 -9.458	 -0.003	  0.002	  0.004	 29.400	 80.312	 1879.279
78170	  0.002	  0.156	  0.637	  1.892	 -1.041	 -9.487	 -0.004	  0.001	  0.004	 29.400	 80.174	 1895.234
78220	  0.001	  0.150	  0.637	  1.905	 -1.051	 -9.441	 -0.004	  0.004	  0.003	 29.400	 80.009	 1914.354
78270	  0.002	  0.151	  0.639	  1.913	 -1.042	 -9.511	 -0.004	  0.002	  0.003	 29.400	 79.871	 1930.381
78320	  0.002	  0.151	  0.641	  1.921	 -1.063	 -9.459	 -0.004	  0.003	  0.003	 29.400	 79.717	 1948.305
78370	  0.004	  0.152	  0.637	  1.921	 -1.049	 -9.492	 -0.003	  0.003	  0.003	 29.400	 79.570	 1965.454
78421	  0.001	  0.151	  0.635	  1.910	 -1.013	 -9.466	 -0.005	  0.002	  0.004	 29.400	 79.424	 1982.523
78471	  0.002	  0.150	  0.640	  1.898	 -1.027	 -9.476	 -0.004	  0.002	  0.003	 29.400	 79.275	 1999.981
78521	  0.002	  0.153	  0.638	  1.907	 -1.038	 -9.476	 -0.003	  0.002	  0.004	 29.400	 79.109	 2019.478
78571	  0.001	  0.150	  0.639	  1.908	 -1.031	 -9.513	 -0.006	  0.001	  0.003	 29.400	 78.963	 2036.666
78621	  0.002	  0.151	  0.638	  1.895	 -1.028	 -9.498	 -0.003	  0.003	  0.004	 29.400	 78.802	 2055.663
78671	  0.000	  0.158	  0.635	  1.901	 -1.061	 -9.505	 -0.004	  0.003	  0.003	 29.400	 78.671	 2071.155
78721	  0.002	  0.152	  0.638	  1.864	 -1.051	 -9.501	 -0.004	  0.002	  0.005	 29.400	 78.513	 2089.881
78771	  0.001	  0.151	  0.635	  1.921	 -1.047	 -9.470	 -0.005	  0.004	  0.003	 29.400	 78.379	 2105.798
78821	  0.002	  0.156	  0.636	  1.927	 -1.026	 -9.497	 -0.003	  0.002	  0.003	 29.400	 78.221	 2124.607
78871	  0.002	  0.157	  0.641	  1.908	 -1.038	 -9.486	 -0.003	  0.003	  0.004	 29.400	 78.075	 2142.028
78921	  0.004	  0.151	  0.633	  1.888	 -1.040	 -9.488	 -0.003	  0.002	  0.004	 29.400	 77.940	 2158.170
78971	  0.000	  0.151	  0.637	  1.910	 -1.056	 -9.518	 -0.004	  0.003	  0.004	 29.400	 77.794	 2175.666
79021	  0.003	  0.149	  0.639	  1.930	 -1.052	 -9.478	 -0.004	  0.002	  0.004	 29.400	 77.636	 2194.644
79071	  0.001	  0.149	  0.636	  1.903	 -1.046	 -9.491	 -0.004	  0.001	  0.004	 29.400	 77.490	 2212.222
79121	  0.002	  0.153	  0.637	  1.917	 -1.053	 -9.473	 -0.003	  0.002	  0.002	 29.400	 77.333	 2231.168
79171	  0.003	  0.151	  0.638	  1.910	 -1.059	 -9.498	 -0.004	  0.003	  0.004	 29.400	 77.212	 2245.801
79221	  0.003	  0.156	  0.639	  1.880	 -1.050	 -9.477	 -0.002	  0.003	  0.004	 29.400	 77.040	 2266.648
79271	  0.001	  0.152	  0.636	  1.888	 -1.050	 -9.490	 -0.004	  0.003	  0.003	 29.400	 76.906	 2282.928
79321	  0.000	  0.159	  0.639	  1.892	 -1.049	 -9.500	 -0.005	  0.001	  0.003	 29.400	 76.759	 2300.827
79371	  0.002	  0.152	  0.632	  1.907	 -1.062	 -9.490	 -0.003	  0.003	  0.004	 29.400	 76.624	 2317.301
79421	  0.001	  0.152	  0.634	  1.926	 -1.038	 -9.487	 -0.004	  0.001	  0.003	 29.400	 76.478	 2335.156
79471	  0.001	  0.153	  0.633	  1.921	 -1.044	 -9.487	 -0.004	  0.002	  0.005	 29.400	 76.347	 2351.210
79521	  0.001	  0.154	  0.643	  1.911	 -1.047	 -9.480	 -0.005	  0.002	  0.003	 29.400	 76.197	 2369.634
79571	  0.002	  0.150	  0.638	  1.914	 -1.047	 -9.496	 -0.004	  0.004	  0.005	 29.400	 76.051	 2387.608
79620	  0.002	  0.150	  0.637	  1.895	 -1.050	 -9.482	 -0.005	  0.003	  0.004	 29.400	 75.908	 2405.253
79670	  0.000	  0.149	  0.637	  1.921	 -1.035	 -9.501	 -0.004	  0.003	  0.004	 29.400	 75.773	 2421.947
79721	  0.001	  0.153	  0.636	  1.906	 -1.058	 -9.480	 -0.004	  0.002	  0.003	 29.400	 75.624	 2440.414
79770	  0.003	  0.150	  0.640	  1.915	 -1.050	 -9.453	 -0.005	  0.003	  0.005	 29.400	 75.489	 2457.183
79820	  0.001	  0.149	  0.638	  1.902	 -1.050	 -9.515	 -0.005	  0.002	  0.003	 29.400	 75.357	 2473.613
79870	 -0.002	  0.149	  0.636	  1.886	 -1.024	 -9.474	 -0.005	  0.002	  0.002	 29.400	 75.211	 2491.827
79920	  0.001	  0.153	  0.635	  1.900	 -1.027	 -9.506	 -0.005	  0.004	  0.003	 29.400	 75.065	 2510.083
79970	  0.004	  0.153	  0.638	  1.922	 -1.037	 -9.496	 -0.004	  0.002	  0.004	 29.400	 74.938	 2525.996
80020	  0.000	  0.156	  0.637	  1.913	 -1.062	 -9.481	 -0.003	  0.003	  0.003	 29.400	 74.795	 2543.955
80070	  0.001	  0.149	  0.639	  1.901	 -1.048	 -9.478	 -0.003	  0.003	  0.003	 29.400	 74.660	 2560.945
80120	  0.002	  0.154	  0.635	  1.911	 -1.048	 -9.486	 -0.004	  0.002	  0.003	 29.400	 74.514	 2579.362
80170	  0.002	  0.149	  0.637	  1.908	 -1.045	 -9.490	 -0.006	  0.003	  0.003	 29.400	 74.390	 2595.037
80220	  0.002	  0.150	  0.635	  1.906	 -1.051	 -9.496	 -0.003	  0.002	  0.004	 29.400	 74.244	 2613.533
80270	  0.003	  0.151	  0.639	  1.902	 -1.042	 -9.494	 -0.004	  0.001	  0.005	 29.400	 74.120	 2629.276
80320	  0.001	  0.151	  0.636	  1.900	 -1.043	 -9.482	 -0.003	  0.002	  0.003	 29.400	 73.963	 2649.255
80370	 -0.001	  0.150	  0.632	  1.902	 -1.042	 -9.477	 -0.005	  0.002	  0.004	 29.400	 73.828	 2666.473
80420	  0.001	  0.156	  0.639	  1.903	 -1.026	 -9.449	 -0.005	  0.003	  0.004	 29.400	 73.719	 2680.404
80470	  0.001	  0.151	  0.638	  1.913	 -1.051	 -9.495	 -0.002	  0.004	  0.004	 29.400	 73.558	 2701.025
80520	  0.001	  0.152	  0.633	  1.904	 -1.045	 -9.478	 -0.005	  0.002	  0.004	 29.400	 73.412	 2719.771
80570	  0.001	  0.153	  0.635	  1.912	 -1.061	 -9.505	 -0.004	  0.003	  0.003	 29.400	 73.288	 2735.727
80620	  0.000	  0.161	  0.635	  1.894	 -1.042	 -9.515	 -0.005	  0.003	  0.004	 29.400	 73.156	 2752.748
80670	  0.001	  0.153	  0.636	  1.910	 -1.058	 -9.494	 -0.003	  0.003	  0.004	 29.400	 73.030	 2769.030
80720	  0.003	  0.152	  0.632	  1.902	 -1.042	 -9.472	 -0.003	  0.002	  0.003	 29.400	 72.895	 2786.512
80770	  0.001	  0.159	  0.635	  1.878	 -1.060	 -9.526	 -0.005	  0.004	  0.004	 29.400	 72.763	 2803.642
80820	  0.001	  0.153	  0.641	  1.899	 -1.087	 -9.471	 -0.003	  0.003	  0.003	 29.400	 72.602	 2824.587
80870	  0.000	  0.148	  0.632	  1.910	 -1.059	 -9.524	 -0.005	  0.004	  0.004	 29.400	 72.479	 2840.625
80920	  0.001	  0.154	  0.640	  1.900	 -1.026	 -9.470	 -0.003	  0.002	  0.004	 29.400	 72.355	 2856.826
80970	  0.002	  0.152	  0.634	  1.912	 -1.047	 -9.460	 -0.004	  0.003	  0.004	 29.400	 72.223	 2874.110
81020	  0.000	  0.151	  0.637	  1.932	 -1.041	 -9.460	 -0.004	  0.003	  0.003	 29.400	 72.088	 2891.825
81070	  0.000	  0.151	  0.639	  1.897	 -1.054	 -9.503	 -0.004	  0.002	  0.004	 29.400	 71.964	 2908.132
81120	  0.002	  0.154	  0.641	  1.910	 -1.037	 -9.486	 -0.004	  0.002	  0.003	 29.400	 71.818	 2927.374
81170	 -0.001	  0.151	  0.635	  1.913	 -1.068	 -9.510	 -0.004	  0.004	  0.003	 29.400	 71.683	 2945.208
81220	  0.002	  0.156	  0.634	  1.911	 -1.034	 -9.499	 -0.004	  0.002	  0.003	 29.400	 71.548	 2963.082
81270	  0.000	  0.159	  0.636	  1.884	 -1.049	 -9.486	 -0.004	  0.002	  0.003	 29.400	 71.436	 2977.942
81320	  0.003	  0.153	  0.640	  1.904	 -1.042	 -9.485	 -0.004	  0.002	  0.003	 29.400	 71.290	 2997.354
81370	  0.000	  0.150	  0.639	  1.894	 -1.071	 -9.484	 -0.005	  0.002	  0.004	 29.400	 71.177	 3012.411
81420	  0.003	  0.152	  0.635	  1.911	 -1.042	 -9.483	 -0.004	  0.002	  0.004	 29.400	 71.042	 3030.437
81470	  0.001	  0.148	  0.639	  1.890	 -1.062	 -9.499	 -0.005	  0.003	  0.003	 29.400	 70.907	 3048.504
81520	  0.001	  0.153	  0.640	  1.900	 -1.040	 -9.491	 -0.004	  0.002	  0.003	 29.400	 70.773	 3066.477
81570	  0.000	  0.151	  0.637	  1.912	 -1.038	 -9.488	 -0.004	  0.003	  0.003	 29.400	 70.649	 3083.146
81620	  0.005	  0.150	  0.630	  1.909	 -1.024	 -9.461	 -0.005	  0.002	  0.003	 29.400	 70.514	 3101.333
81670	  0.002	  0.153	  0.635	  1.896	 -1.062	 -9.514	 -0.004	  0.003	  0.003	 29.400	 70.393	 3117.668
81720	  0.003	  0.149	  0.637	  1.919	 -1.048	 -9.512	 -0.005	  0.003	  0.004	 29.400	 70.258	 3135.934
81770	  0.003	  0.156	  0.639	  1.923	 -1.071	 -9.480	 -0.004	  0.004	  0.003	 29.400	 70.132	 3153.020
81820	 -0.001	  0.149	  0.635	  1.897	 -1.047	 -9.523	 -0.004	  0.001	  0.004	 29.400	 70.011	 3169.462
81870	  0.004	  0.153	  0.638	  1.893	 -1.037	 -9.494	 -0.003	  0.003	  0.004	 29.400	 69.873	 3188.256
81920	  0.004	  0.154	  0.638	  1.882	 -1.065	 -9.474	 -0.004	  0.003	  0.005	 29.400	 69.749	 3205.181
81970	  0.002	  0.153	  0.638	  1.888	 -1.045	 -9.494	 -0.004	  0.003	  0.003	 29.400	 69.629	 3221.594
82020	  0.002	  0.153	  0.634	  1.927	 -1.068	 -9.471	 -0.005	  0.002	  0.004	 29.400	 69.491	 3240.511
82070	  0.002	  0.153	  0.633	  1.899	 -1.040	 -9.458	 -0.004	  0.001	  0.004	 29.400	 69.367	 3257.547
82120	  0.001	  0.157	  0.640	  1.917	 -1.063	 -9.477	 -0.004	  0.003	  0.003	 29.400	 69.246	 3274.205
82170	  0.002	  0.149	  0.639	  1.884	 -1.040	 -9.503	 -0.004	  0.001	  0.004	 29.400	 69.131	 3290.071
82220	  0.004	  0.152	  0.641	  1.908	 -1.037	 -9.500	 -0.004	  0.003	  0.003	 29.400	 68.985	 3310.257
82270	  0.002	  0.148	  0.633	  1.893	 -1.035	 -9.493	 -0.006	  0.002	  0.004	 29.400	 68.864	 3327.026
82320	  0.000	  0.152	  0.635	  1.897	 -1.045	 -9.455	 -0.004	  0.003	  0.003	 29.400	 68.737	 3344.664
82370	  0.001	  0.154	  0.640	  1.922	 -1.058	 -9.528	 -0.005	  0.001	  0.004	 29.400	 68.628	 3359.833
82420	  0.001	  0.155	  0.636	  1.915	 -1.053	 -9.488	 -0.004	  0.004	  0.004	 29.400	 68.493	 3378.661
82470	  0.003	  0.150	  0.631	  1.907	 -1.053	 -9.484	 -0.003	  0.002	  0.003	 29.400	 68.380	 3394.454
82520	  0.003	  0.153	  0.637	  1.915	 -1.052	 -9.482	 -0.003	  0.003	  0.004	 29.400	 68.245	 3413.363
82570	  0.002	  0.154	  0.634	  1.911	 -1.044	 -9.493	 -0.004	  0.001	  0.004	 29.400	 68.133	 3429.084
82620	  0.001	  0.151	  0.637	  1.919	 -1.044	 -9.474	 -0.004	  0.002	  0.003	 29.400	 67.995	 3448.497
82670	  0.002	  0.150	  0.635	  1.918	 -1.041	 -9.506	 -0.003	  0.003	  0.004	 29.400	 67.886	 3463.864
82720	  0.003	  0.155	  0.635	  1.895	 -1.050	 -9.508	 -0.002	  0.003	  0.004	 29.400	 67.751	 3482.938
82770	  0.003	  0.150	  0.640	  1.911	 -1.055	 -9.484	 -0.006	  0.003	  0.004	 29.400	 67.638	 3498.938
82820	  0.002	  0.155	  0.638	  1.886	 -1.065	 -9.479	 -0.004	  0.003	  0.004	 29.400	 67.503	 3518.094
82870	 -0.001	  0.151	  0.637	  1.912	 -1.066	 -9.509	 -0.004	  0.003	  0.003	 29.400	 67.380	 3535.588
82920	  0.002	  0.148	  0.639	  1.902	 -1.045	 -9.495	 -0.004	  0.003	  0.004	 29.400	 67.256	 3553.263
82970	  0.001	  0.151	  0.635	  1.936	 -1.056	 -9.493	 -0.004	  0.003	  0.004	 29.400	 67.143	 3569.403
83020	  0.002	  0.152	  0.634	  1.893	 -1.049	 -9.488	 -0.002	  0.002	  0.004	 29.400	 67.020	 3587.009
83070	  0.002	  0.162	  0.639	  1.933	 -1.067	 -9.487	 -0.004	  0.003	  0.004	 29.400	 66.907	 3603.217
83120	  0.001	  0.157	  0.639	  1.901	 -1.032	 -9.481	 -0.004	  0.002	  0.004	 29.400	 66.772	 3622.622
83170	  0.002	  0.154	  0.639	  1.905	 -1.063	 -9.479	 -0.003	  0.003	  0.004	 29.400	 66.660	 3638.758
83220	  0.001	  0.150	  0.637	  1.916	 -1.063	 -9.503	 -0.005	  0.003	  0.003	 29.400	 66.528	 3657.818
83270	  0.002	  0.152	  0.637	  1.901	 -1.052	 -9.506	 -0.004	  0.004	  0.004	 29.400	 66.412	 3674.603
83320	  0.002	  0.160	  0.636	  1.919	 -1.057	 -9.487	 -0.004	  0.002	  0.004	 29.400	 66.289	 3692.440
83369	  0.003	  0.151	  0.636	  1.896	 -1.060	 -9.508	 -0.003	  0.002	  0.004	 29.400	 66.179	 3708.426
83419	  0.004	  0.147	  0.640	  1.920	 -1.058	 -9.519	 -0.005	  0.002	  0.003	 29.400	 66.056	 3726.338
83469	  0.001	  0.151	  0.635	  1.881	 -1.059	 -9.501	 -0.004	  0.002	  0.005	 29.400	 65.929	 3744.874
83519	  0.002	  0.149	  0.637	  1.913	 -1.061	 -9.478	 -0.004	  0.003	  0.004	 29.400	 65.831	 3759.206
83569	  0.004	  0.153	  0.631	  1.902	 -1.055	 -9.482	 -0.005	  0.002	  0.004	 29.400	 65.707	 3777.378
83619	  0.002	  0.152	  0.637	  1.908	 -1.059	 -9.507	 -0.004	  0.001	  0.004	 29.400	 65.738	 3772.832
83669	  0.004	  0.152	  0.636	  2.034	 -0.886	 -9.372	 -0.000	 -0.008	  0.023	 29.400	 67.956	 3453.992
83719	  0.003	  0.160	  0.638	  1.951	 -0.876	 -9.318	  0.002	 -0.008	  0.020	 29.400	 72.263	 2868.868
83770	  0.002	  0.152	  0.639	  1.878	 -1.065	 -9.515	 -0.004	 -0.003	  0.015	 29.400	 75.915	 2404.388
83819	  0.003	  0.151	  0.634	  1.882	 -0.984	 -9.452	 -0.010	  0.002	  0.014	 29.400	 78.839	 2051.294
83870	  0.005	  0.152	  0.630	  1.870	 -1.093	 -9.516	 -0.003	  0.001	  0.007	 29.400	 80.649	 1840.452
83920	  0.002	  0.153	  0.634	  1.880	 -1.044	 -9.477	 -0.001	 -0.001	  0.009	 29.400	 81.942	 1693.258
83970	  0.003	  0.155	  0.638	  1.890	 -1.040	 -9.504	 -0.004	  0.001	  0.007	 29.400	 82.748	 1602.898
84020	  0.004	  0.151	  0.637	  1.878	 -1.062	 -9.479	 -0.004	  0.002	  0.005	 29.400	 83.311	 1540.400
84070	  0.003	  0.161	  0.639	  1.896	 -1.062	 -9.531	 -0.003	  0.001	  0.005	 29.400	 83.715	 1495.862
84120	  0.005	  0.154	  0.639	  1.893	 -1.082	 -9.488	 -0.003	  0.003	  0.004	 29.400	 83.996	 1465.034
84170	  0.002	  0.152	  0.642	  1.887	 -1.047	 -9.485	 -0.003	  0.002	  0.005	 29.400	 84.221	 1440.439
84220	  0.004	  0.151	  0.638	  1.899	 -1.086	 -9.458	 -0.004	  0.001	  0.005	 29.400	 84.413	 1419.513
84270	  0.003	  0.150	  0.637	  1.885	 -1.067	 -9.513	 -0.005	  0.002	  0.005	 29.400	 84.547	 1404.942
84320	  0.002	  0.151	  0.639	  1.886	 -1.086	 -9.494	 -0.003	  0.003	  0.005	 29.400	 84.682	 1390.289
84370	  0.005	  0.158	  0.638	  1.882	 -1.060	 -9.463	 -0.004	  0.002	  0.004	 29.400	 84.817	 1375.664
84420	  0.003	  0.160	  0.638	  1.901	 -1.088	 -9.493	 -0.005	  0.002	  0.004	 29.400	 84.930	 1363.445
84470	  0.006	  0.153	  0.633	  1.886	 -1.082	 -9.530	 -0.004	  0.002	  0.005	 29.400	 85.042	 1351.353
84520	  0.004	  0.152	  0.634	  1.909	 -1.067	 -9.460	 -0.003	  0.001	  0.005	 29.400	 85.177	 1336.801
84570	  0.003	  0.164	  0.638	  1.867	 -1.035	 -9.472	 -0.004	  0.002	  0.004	 29.400	 85.278	 1325.934
84620	  0.003	  0.157	  0.640	  1.880	 -1.084	 -9.465	 -0.004	  0.003	  0.005	 29.400	 85.391	 1313.792
84670	  0.003	  0.159	  0.639	  1.871	 -1.072	 -9.509	 -0.004	  0.002	  0.003	 29.400	 85.481	 1304.136
84720	  0.004	  0.153	  0.636	  1.869	 -1.065	 -9.493	 -0.004	  0.001	  0.004	 29.400	 85.593	 1292.136
84770	  0.006	  0.154	  0.640	  1.896	 -1.076	 -9.475	 -0.004	  0.002	  0.004	 29.400	 85.661	 1284.860
84820	  0.006	  0.159	  0.639	  1.901	 -1.070	 -9.513	 -0.005	  0.004	  0.004	 29.400	 85.773	 1272.890
84870	  0.004	  0.152	  0.631	  1.869	 -1.081	 -9.478	 -0.004	  0.003	  0.004	 29.400	 85.844	 1265.312
84920	  0.002	  0.154	  0.634	  1.883	 -1.062	 -9.472	 -0.005	  0.002	  0.004	 29.400	 85.923	 1256.889
84970	  0.004	  0.155	  0.638	  1.894	 -1.080	 -9.503	 -0.006	  0.002	  0.004	 29.400	 86.024	 1246.132
85020	  0.005	  0.153	  0.632	  1.877	 -1.059	 -9.482	 -0.005	  0.002	  0.003	 29.400	 86.077	 1240.494
85070	  0.004	  0.153	  0.637	  1.871	 -1.075	 -9.484	 -0.004	  0.002	  0.003	 29.400	 86.144	 1233.373
85120	  0.006	  0.162	  0.639	  1.885	 -1.057	 -9.479	 -0.004	  0.003	  0.005	 29.400	 86.212	 1226.152
85170	  0.003	  0.154	  0.636	  1.865	 -1.070	 -9.478	 -0.004	  0.002	  0.004	 29.400	 86.272	 1219.786
85220	  0.006	  0.153	  0.637	  1.882	 -1.035	 -9.471	 -0.004	  0.001	  0.003	 29.400	 86.324	 1214.273
85270	  0.003	  0.148	  0.638	  1.881	 -1.067	 -9.423	 -0.003	  0.003	  0.004	 29.400	 86.373	 1209.082
85320	  0.004	  0.151	  0.636	  1.907	 -1.056	 -9.506	 -0.005	  0.003	  0.005	 29.400	 86.437	 1202.307
85370	  0.005	  0.149	  0.638	  1.875	 -1.056	 -9.493	 -0.005	  0.003	  0.004	 29.400	 86.497	 1195.960
85420	  0.006	  0.153	  0.632	  1.894	 -1.059	 -9.491	 -0.004	  0.001	  0.004	 29.400	 86.549	 1190.465
85470	  0.005	  0.159	  0.639	  1.876	 -1.066	 -9.519	 -0.003	  0.003	  0.004	 29.400	 86.572	 1188.036
85520	  0.004	  0.152	  0.636	  1.875	 -1.088	 -9.475	 -0.005	  0.002	  0.004	 29.400	 86.646	 1180.223
85570	  0.003	  0.151	  0.637	  1.892	 -1.064	 -9.477	 -0.003	  0.002	  0.005	 29.400	 86.684	 1176.216
85620	  0.006	  0.153	  0.640	  1.871	 -1.072	 -9.506	 -0.005	  0.003	  0.004	 29.400	 86.718	 1172.631
85670	  0.004	  0.151	  0.637	  1.885	 -1.067	 -9.484	 -0.004	  0.005	  0.004	 29.400	 86.766	 1167.573
85720	  0.006	  0.154	  0.638	  1.890	 -1.064	 -9.467	 -0.004	  0.004	  0.003	 29.400	 86.811	 1162.835
85770	  0.005	  0.157	  0.633	  1.871	 -1.085	 -9.471	 -0.003	  0.002	  0.004	 29.400	 86.856	 1158.098
85820	  0.004	  0.153	  0.633	  1.880	 -1.083	 -9.443	 -0.004	  0.002	  0.004	 29.400	 86.898	 1153.681
85870	  0.005	  0.160	  0.638	  1.882	 -1.071	 -9.465	 -0.004	  0.002	  0.003	 29.400	 86.913	 1152.104
85920	  0.001	  0.151	  0.638	  1.890	 -1.070	 -9.502	 -0.005	  0.001	  0.004	 29.400	 86.958	 1147.375
85970	  0.005	  0.149	  0.635	  1.895	 -1.056	 -9.491	 -0.005	  0.003	  0.005	 29.400	 86.988	 1144.225
86020	  0.002	  0.151	  0.634	  1.874	 -1.098	 -9.455	 -0.004	  0.003	  0.004	 29.400	 87.036	 1139.185
86070	  0.006	  0.150	  0.639	  1.877	 -1.055	 -9.515	 -0.005	  0.003	  0.005	 29.400	 87.059	 1136.772
86120	  0.007	  0.153	  0.640	  1.879	 -1.065	 -9.506	 -0.004	  0.002	  0.004	 29.400	 87.089	 1133.625
86170	  0.007	  0.150	  0.638	  1.874	 -1.051	 -9.459	 -0.005	  0.003	  0.003	 29.400	 87.123	 1130.060
86220	  0.002	  0.152	  0.633	  1.886	 -1.069	 -9.481	 -0.003	  0.002	  0.003	 29.400	 87.160	 1126.183
86270	  0.004	  0.152	  0.637	  1.884	 -1.059	 -9.482	 -0.002	  0.002	  0.005	 29.400	 87.205	 1121.469
86320	  0.006	  0.147	  0.638	  1.881	 -1.088	 -9.467	 -0.003	  0.003	  0.004	 29.400	 87.246	 1117.178
86370	  0.003	  0.152	  0.640	  1.886	 -1.054	 -9.496	 -0.004	  0.003	  0.004	 29.400	 87.284	 1113.203
86420	  0.005	  0.155	  0.638	  1.885	 -1.073	 -9.475	 -0.004	  0.003	  0.003	 29.400	 87.317	 1109.752
86470	  0.004	  0.160	  0.638	  1.929	 -1.063	 -9.438	 -0.005	  0.003	  0.005	 29.400	 87.351	 1106.198
86520	  0.007	  0.161	  0.638	  1.888	 -1.081	 -9.505	 -0.004	  0.004	  0.004	 29.400	 87.385	 1102.646
86570	  0.002	  0.152	  0.638	  1.886	 -1.097	 -9.477	 -0.004	  0.003	  0.004	 29.400	 87.441	 1096.800
86620	  0.006	  0.153	  0.629	  1.892	 -1.072	 -9.476	 -0.004	  0.002	  0.004	 29.400	 87.475	 1093.252
86670	  0.002	  0.149	  0.640	  1.915	 -1.070	 -9.492	 -0.004	  0.003	  0.004	 29.400	 87.520	 1088.559
86720	  0.006	  0.153	  0.638	  1.847	 -1.072	 -9.470	 -0.004	  0.001	  0.005	 29.400	 87.565	 1083.869
86770	  0.004	  0.154	  0.639	  1.874	 -1.079	 -9.463	 -0.004	  0.003	  0.004	 29.400	 87.587	 1081.577
86820	  0.006	  0.149	  0.638	  1.899	 -1.078	 -9.492	 -0.004	  0.003	  0.003	 29.400	 87.644	 1075.643
86870	  0.005	  0.155	  0.637	  1.899	 -1.070	 -9.452	 -0.004	  0.002	  0.004	 29.400	 87.674	 1072.520
86920	  0.004	  0.151	  0.638	  1.884	 -1.059	 -9.479	 -0.003	  0.002	  0.002	 29.400	 87.711	 1068.673
86970	  0.004	  0.151	  0.636	  1.890	 -1.070	 -9.485	 -0.004	  0.002	  0.003	 29.400	 87.756	 1063.995
87020	  0.003	  0.152	  0.634	  1.866	 -1.049	 -9.481	 -0.005	  0.001	  0.003	 29.400	 87.790	 1060.462
87070	  0.005	  0.151	  0.635	  1.900	 -1.071	 -9.453	 -0.005	  0.003	  0.003	 29.400	 87.824	 1056.932
87120	  0.002	  0.155	  0.635	  1.874	 -1.090	 -9.434	 -0.004	  0.003	  0.004	 29.400	 87.865	 1052.676
87170	  0.004	  0.154	  0.637	  1.878	 -1.082	 -9.484	 -0.004	  0.002	  0.004	 29.400	 87.902	 1048.837
87220	  0.003	  0.155	  0.637	  1.881	 -1.046	 -9.516	 -0.003	  0.002	  0.003	 29.400	 87.936	 1045.312
87270	  0.005	  0.151	  0.638	  1.872	 -1.073	 -9.445	 -0.004	  0.001	  0.004	 29.400	 87.970	 1041.787
87319	  0.003	  0.151	  0.637	  1.864	 -1.055	 -9.502	 -0.005	  0.001	  0.004	 29.400	 88.003	 1038.369
87369	  0.007	  0.153	  0.640	  1.884	 -1.102	 -9.505	 -0.004	  0.002	  0.003	 29.400	 88.060	 1032.468
87419	  0.003	  0.155	  0.637	  1.896	 -1.049	 -9.522	 -0.005	  0.001	  0.003	 29.400	 88.105	 1027.811
87469	  0.008	  0.153	  0.638	  1.873	 -1.090	 -9.464	 -0.004	  0.002	  0.005	 29.400	 88.150	 1023.159
87519	  0.006	  0.156	  0.638	  1.907	 -1.075	 -9.520	 -0.004	  0.003	  0.003	 29.400	 88.210	 1016.959
87569	  0.005	  0.160	  0.641	  1.884	 -1.061	 -9.462	 -0.003	  0.002	  0.003	 29.400	 88.240	 1013.862
87619	  0.006	  0.153	  0.638	  1.890	 -1.063	 -9.488	 -0.005	  0.002	  0.004	 29.400	 88.300	 1007.670
87669	  0.004	  0.150	  0.637	  1.892	 -1.068	 -9.496	 -0.003	  0.003	  0.004	 29.400	 88.318	 1005.813
87719	  0.007	  0.156	  0.639	  1.860	 -1.072	 -9.494	 -0.006	  0.003	  0.003	 29.400	 88.375	 999.936
87769	  0.005	  0.154	  0.635	  1.878	 -1.064	 -9.491	 -0.004	  0.002	  0.005	 29.400	 88.397	 997.669
87819	  0.006	  0.152	  0.636	  1.860	 -1.056	 -9.468	 -0.005	  0.003	  0.003	 29.400	 88.464	 990.771
87869	  0.002	  0.153	  0.639	  1.891	 -1.065	 -9.504	 -0.004	  0.002	  0.005	 29.400	 88.487	 988.403
87919	  0.006	  0.152	  0.635	  1.889	 -1.077	 -9.494	 -0.005	  0.001	  0.004	 29.400	 88.532	 983.774
87969	  0.003	  0.152	  0.639	  1.872	 -1.070	 -9.508	 -0.004	  0.002	  0.004	 29.400	 88.588	 978.018
88019	  0.007	  0.151	  0.636	  1.885	 -1.079	 -9.473	 -0.003	  0.003	  0.005	 29.400	 88.622	 974.524
88069	  0.007	  0.152	  0.637	  1.884	 -1.061	 -9.465	 -0.005	  0.003	  0.004	 29.400	 88.667	 969.904
88119	  0.006	  0.150	  0.638	  1.879	 -1.106	 -9.500	 -0.004	  0.003	  0.002	 29.400	 88.716	 964.875
88169	  0.005	  0.152	  0.638	  1.860	 -1.058	 -9.472	 -0.005	  0.003	  0.003	 29.400	 88.727	 963.748
88219	  0.004	  0.153	  0.635	  1.873	 -1.063	 -9.508	 -0.005	  0.002	  0.004	 29.400	 88.746	 961.799
88269	  0.003	  0.153	  0.636	  1.863	 -1.047	 -9.469	 -0.005	  0.001	  0.004	 29.400	 88.768	 959.544
88319	  0.004	  0.152	  0.640	  1.871	 -1.087	 -9.441	 -0.004	  0.003	  0.004	 29.400	 88.802	 956.059
88369	  0.003	  0.155	  0.632	  1.865	 -1.076	 -9.510	 -0.005	  0.003	  0.003	 29.400	 88.828	 953.395
88419	  0.006	  0.155	  0.635	  1.890	 -1.068	 -9.459	 -0.004	  0.002	  0.003	 29.400	 88.858	 950.323
88469	  0.005	  0.155	  0.636	  1.875	 -1.068	 -9.491	 -0.005	  0.003	  0.004	 29.400	 88.892	 946.843
88519	  0.004	  0.158	  0.639	  1.867	 -1.081	 -9.511	 -0.004	  0.003	  0.004	 29.400	 88.937	 942.239
88569	  0.006	  0.156	  0.636	  1.883	 -1.066	 -9.534	 -0.003	  0.003	  0.004	 29.400	 88.982	 937.638
88619	  0.007	  0.153	  0.641	  1.873	 -1.069	 -9.496	 -0.003	  0.001	  0.004	 29.400	 89.016	 934.163
88669	  0.007	  0.152	  0.639	  1.873	 -1.080	 -9.476	 -0.004	  0.003	  0.003	 29.400	 89.064	 929.260
88719	  0.005	  0.147	  0.639	  1.866	 -1.073	 -9.500	 -0.004	  0.002	  0.004	 29.400	 89.128	 922.729
88769	  0.008	  0.152	  0.637	  1.865	 -1.073	 -9.496	 -0.005	  0.003	  0.005	 29.400	 89.195	 915.897
88819	  0.007	  0.152	  0.636	  1.879	 -1.066	 -9.490	 -0.003	  0.002	  0.004	 29.400	 89.267	 908.562
88869	  0.004	  0.154	  0.637	  1.890	 -1.060	 -9.486	 -0.005	  0.002	  0.003	 29.400	 89.334	 901.743
88919	  0.004	  0.153	  0.637	  1.905	 -1.085	 -9.477	 -0.002	  0.002	  0.004	 29.400	 89.402	 894.827
88969	  0.004	  0.150	  0.641	  1.871	 -1.081	 -9.488	 -0.004	  0.002	  0.004	 29.400	 89.469	 888.020
89019	  0.005	  0.162	  0.638	  1.863	 -1.065	 -9.469	 -0.005	  0.002	  0.003	 29.400	 89.559	 878.886
89070	  0.003	  0.159	  0.637	  1.863	 -1.064	 -9.493	 -0.006	  0.003	  0.004	 29.400	 89.627	 871.992
89119	  0.001	  0.151	  0.633	  1.880	 -1.070	 -9.478	 -0.004	  0.003	  0.003	 29.400	 89.705	 864.091
89169	  0.005	  0.153	  0.638	  1.882	 -1.078	 -9.455	 -0.003	  0.002	  0.005	 29.400	 89.773	 857.210
89219	  0.007	  0.154	  0.633	  1.857	 -1.087	 -9.469	 -0.005	  0.002	  0.004	 29.400	 89.851	 849.326
89269	  0.005	  0.149	  0.638	  1.884	 -1.064	 -9.487	 -0.004	  0.001	  0.003	 29.400	 89.926	 841.751
89319	  0.005	  0.154	  0.639	  1.905	 -1.077	 -9.497	 -0.004	  0.003	  0.005	 29.400	 90.005	 833.781
89369	  0.007	  0.152	  0.639	  1.871	 -1.090	 -9.485	 -0.005	  0.002	  0.005	 29.400	 90.073	 826.927
89419	  0.004	  0.152	  0.636	  1.888	 -1.068	 -9.492	 -0.003	  0.001	  0.004	 29.400	 90.155	 818.671
89469	  0.004	  0.151	  0.633	  1.880	 -1.049	 -9.511	 -0.003	  0.003	  0.004	 29.400	 90.234	 810.725
89520	  0.007	  0.152	  0.639	  1.881	 -1.086	 -9.481	 -0.003	  0.003	  0.004	 29.400	 90.324	 801.683
89570	  0.005	  0.154	  0.636	  1.865	 -1.072	 -9.485	 -0.004	  0.002	  0.003	 29.400	 90.414	 792.651
89620	  0.005	  0.152	  0.639	  1.868	 -1.068	 -9.485	 -0.005	  0.004	  0.004	 29.400	 90.493	 784.733
89669	  0.006	  0.153	  0.633	  1.891	 -1.055	 -9.456	 -0.004	  0.002	  0.005	 29.400	 90.594	 774.621
89720	  0.005	  0.155	  0.635	  1.876	 -1.084	 -9.484	 -0.006	  0.002	  0.003	 29.500	 90.702	 763.822
89770	  0.004	  0.156	  0.633	  1.854	 -1.077	 -9.478	 -0.004	  0.001	  0.005	 29.400	 90.796	 754.437
89820	  0.005	  0.153	  0.636	  1.876	 -1.064	 -9.487	 -0.005	  0.003	  0.004	 29.400	 90.897	 744.365
89870	  0.006	  0.152	  0.633	  1.883	 -1.051	 -9.475	 -0.005	  0.002	  0.004	 29.400	 90.999	 734.207
89920	  0.005	  0.147	  0.636	  1.883	 -1.081	 -9.451	 -0.003	  0.004	  0.003	 29.400	 91.111	 723.069
89970	  0.004	  0.151	  0.642	  1.874	 -1.062	 -9.457	 -0.006	  0.002	  0.004	 29.400	 91.212	 713.039
90020	  0.006	  0.154	  0.632	  1.870	 -1.063	 -9.473	 -0.005	  0.002	  0.004	 29.400	 91.313	 703.021
90070	  0.007	  0.151	  0.639	  1.865	 -1.056	 -9.480	 -0.005	  0.003	  0.004	 29.500	 91.430	 691.434
90120	  0.005	  0.154	  0.636	  1.889	 -1.084	 -9.478	 -0.005	  0.000	  0.003	 29.400	 91.527	 681.840
90170	  0.006	  0.152	  0.638	  1.877	 -1.035	 -9.484	 -0.004	  0.003	  0.004	 29.400	 91.640	 670.680
90220	  0.007	  0.155	  0.638	  1.884	 -1.087	 -9.506	 -0.004	  0.002	  0.005	 29.400	 91.767	 658.156
90270	  0.003	  0.152	  0.636	  1.850	 -1.063	 -9.506	 -0.004	  0.002	  0.004	 29.400	 91.853	 649.687
90320	  0.005	  0.162	  0.636	  1.869	 -1.080	 -9.467	 -0.005	  0.003	  0.004	 29.400	 91.966	 638.573
90370	  0.007	  0.154	  0.638	  1.881	 -1.057	 -9.473	 -0.004	  0.002	  0.005	 29.400	 92.067	 628.654
90420	  0.005	  0.157	  0.639	  1.884	 -1.079	 -9.465	 -0.004	  0.002	  0.003	 29.500	 92.183	 617.278
90470	  0.003	  0.152	  0.639	  1.874	 -1.070	 -9.504	 -0.005	  0.003	  0.004	 29.400	 92.292	 606.604
90520	  0.005	  0.151	  0.627	  1.887	 -1.076	 -9.484	 -0.004	  0.003	  0.004	 29.500	 92.408	 595.260
90570	  0.004	  0.156	  0.638	  1.902	 -1.056	 -9.482	 -0.005	  0.001	  0.004	 29.500	 92.498	 586.470
90620	  0.005	  0.150	  0.638	  1.878	 -1.061	 -9.485	 -0.005	  0.002	  0.004	 29.500	 92.611	 575.449
90670	  0.007	  0.153	  0.639	  1.879	 -1.087	 -9.494	 -0.004	  0.002	  0.003	 29.400	 92.708	 566.001
90720	  0.008	  0.149	  0.635	  1.870	 -1.083	 -9.486	 -0.003	  0.003	  0.004	 29.400	 92.824	 554.719
90770	  0.004	  0.153	  0.635	  1.885	 -1.098	 -9.494	 -0.005	  0.001	  0.005	 29.400	 92.922	 545.200
90820	  0.007	  0.153	  0.638	  1.864	 -1.046	 -9.480	 -0.004	  0.002	  0.004	 29.400	 93.038	 533.947
90870	  0.007	  0.151	  0.637	  1.886	 -1.073	 -9.492	 -0.005	  0.003	  0.004	 29.400	 93.158	 522.325
90920	  0.008	  0.151	  0.637	  1.880	 -1.058	 -9.489	 -0.004	  0.002	  0.003	 29.400	 93.274	 511.106
90970	  0.005	  0.155	  0.631	  1.871	 -1.081	 -9.488	 -0.003	  0.002	  0.004	 29.500	 93.387	 500.195
91020	  0.006	  0.159	  0.636	  1.895	 -1.040	 -9.478	 -0.005	  0.003	  0.004	 29.500	 93.518	 487.564
91070	  0.007	  0.155	  0.631	  1.866	 -1.069	 -9.474	 -0.004	  0.002	  0.004	 29.500	 93.645	 475.340
91120	  0.006	  0.151	  0.637	  1.886	 -1.053	 -9.477	 -0.005	  0.003	  0.003	 29.400	 93.758	 464.479
91170	  0.007	  0.152	  0.631	  1.886	 -1.069	 -9.505	 -0.004	  0.002	  0.005	 29.500	 93.881	 452.675
91220	  0.007	  0.154	  0.638	  1.882	 -1.052	 -9.488	 -0.006	  0.003	  0.004	 29.400	 93.994	 441.847
91269	  0.005	  0.152	  0.636	  1.878	 -1.086	 -9.505	 -0.004	  0.002	  0.005	 29.500	 94.106	 431.130
91319	  0.007	  0.154	  0.635	  1.871	 -1.077	 -9.480	 -0.005	  0.001	  0.005	 29.500	 94.226	 419.665
91369	  0.007	  0.150	  0.637	  1.873	 -1.062	 -9.516	 -0.003	  0.001	  0.003	 29.500	 94.343	 408.502
91419	  0.005	  0.160	  0.638	  1.865	 -1.062	 -9.503	 -0.004	  0.001	  0.006	 29.400	 94.455	 397.832
91469	  0.006	  0.151	  0.638	  1.861	 -1.066	 -9.469	 -0.005	  0.002	  0.004	 29.500	 94.567	 387.178
91519	  0.004	  0.149	  0.636	  1.865	 -1.044	 -9.501	 -0.005	  0.002	  0.004	 29.400	 94.680	 376.444
91569	  0.005	  0.153	  0.633	  1.891	 -1.062	 -9.507	 -0.003	  0.003	  0.004	 29.500	 94.781	 366.862
91619	  0.003	  0.153	  0.638	  1.859	 -1.101	 -9.486	 -0.005	  0.002	  0.004	 29.400	 94.882	 357.292
91669	  0.005	  0.152	  0.629	  1.869	 -1.055	 -9.481	 -0.004	  0.002	  0.004	 29.500	 94.995	 346.600
91719	  0.008	  0.155	  0.632	  1.890	 -1.101	 -9.479	 -0.004	  0.003	  0.003	 29.400	 95.085	 338.096
91769	  0.004	  0.150	  0.638	  1.868	 -1.080	 -9.481	 -0.004	  0.002	  0.005	 29.500	 95.175	 329.600
91819	  0.007	  0.157	  0.637	  1.888	 -1.071	 -9.483	 -0.005	  0.001	  0.005	 29.500	 95.276	 320.077
91869	  0.006	  0.150	  0.638	  1.872	 -1.056	 -9.514	 -0.003	  0.003	  0.004	 29.500	 95.377	 310.567
91919	  0.005	  0.152	  0.636	  1.905	 -1.073	 -9.506	 -0.005	  0.003	  0.004	 29.500	 95.445	 304.171
91969	  0.008	  0.150	  0.637	  1.862	 -1.064	 -9.473	 -0.004	  0.003	  0.004	 29.500	 95.535	 295.713
92019	  0.005	  0.149	  0.632	  1.872	 -1.088	 -9.487	 -0.005	  0.003	  0.004	 29.500	 95.625	 287.266
92069	  0.005	  0.149	  0.630	  1.854	 -1.084	 -9.509	 -0.004	  0.002	  0.004	 29.400	 95.699	 280.327
92119	  0.006	  0.154	  0.639	  1.895	 -1.068	 -9.462	 -0.004	  0.003	  0.004	 29.500	 95.805	 270.399
92169	  0.006	  0.152	  0.636	  1.875	 -1.047	 -9.507	 -0.003	  0.001	  0.005	 29.500	 95.872	 264.130
92219	  0.006	  0.155	  0.638	  1.891	 -1.056	 -9.487	 -0.004	  0.003	  0.003	 29.500	 95.962	 255.718
92269	  0.006	  0.161	  0.637	  1.871	 -1.078	 -9.500	 -0.005	  0.005	  0.004	 29.500	 96.041	 248.341
92319	  0.004	  0.151	  0.638	  1.872	 -1.072	 -9.475	 -0.004	  0.001	  0.004	 29.500	 96.142	 238.921
92369	  0.004	  0.155	  0.638	  1.887	 -1.076	 -9.485	 -0.006	  0.003	  0.004	 29.500	 96.232	 230.537
92419	  0.007	  0.154	  0.637	  1.895	 -1.054	 -9.470	 -0.004	  0.002	  0.006	 29.500	 96.322	 222.162
92469	  0.008	  0.152	  0.636	  1.865	 -1.084	 -9.514	 -0.005	  0.003	  0.004	 29.400	 96.397	 215.190
92519	  0.005	  0.150	  0.641	  1.878	 -1.065	 -9.490	 -0.004	  0.003	  0.004	 29.400	 96.513	 204.419
92569	  0.006	  0.149	  0.638	  1.857	 -1.067	 -9.487	 -0.005	  0.002	  0.004	 29.500	 96.637	 192.922
92619	  0.005	  0.151	  0.633	  1.882	 -1.054	 -9.495	 -0.003	  0.004	  0.003	 29.500	 96.805	 177.375
92669	  0.006	  0.149	  0.631	  1.872	 -1.069	 -9.482	 -0.005	  0.002	  0.003	 29.500	 96.963	 162.782
92719	  0.008	  0.151	  0.635	  1.868	 -1.053	 -9.497	 -0.004	  0.002	  0.004	 29.500	 97.255	 135.888
92769	  0.007	  0.151	  0.639	  1.849	 -1.030	 -9.443	 -0.005	  0.003	  0.006	 29.500	 97.581	 105.974
92819	  0.004	  0.149	  0.637	  1.904	 -1.113	 -9.449	 -0.001	  0.002	  0.006	 29.500	 98.076	 60.782
92869	  0.007	  0.150	  0.637	  1.880	 -1.117	 -9.470	 -0.006	  0.002	  0.004	 29.500	 98.301	 40.328
92919	  0.008	  0.155	  0.639	  1.829	 -1.079	 -9.528	 -0.006	  0.003	  0.004	 29.500	 98.504	 21.924
92969	  0.004	  0.155	  0.635	  1.866	 -1.067	 -9.479	 -0.003	  0.001	  0.004	 29.500	 98.729	  1.577
93019	  0.005	  0.153	  0.635	  1.873	 -1.052	 -9.462	 -0.004	  0.001	  0.004	 29.500	 98.740	  0.584
93069	  0.008	  0.153	  0.638	  1.887	 -1.060	 -9.485	 -0.004	  0.002	  0.004	 29.500	 98.740	  0.584
93119	  0.005	  0.152	  0.630	  1.859	 -1.072	 -9.487	 -0.004	  0.004	  0.003	 29.500	 98.729	  1.577
93169	  0.005	  0.153	  0.638	  1.883	 -1.109	 -9.476	 -0.004	  0.002	  0.003	 29.500	 98.740	  0.584
93219	  0.008	  0.158	  0.637	  1.865	 -1.010	 -9.490	 -0.005	  0.003	  0.003	 29.500	 98.740	  0.584
93269	  0.006	  0.154	  0.640	  1.872	 -1.075	 -9.489	 -0.004	  0.002	  0.003	 29.500	 98.740	  0.584
93319	  0.008	  0.149	  0.636	  1.869	 -1.045	 -9.474	 -0.004	  0.004	  0.004	 29.500	 98.744	  0.223
93369	  0.008	  0.149	  0.630	  1.890	 -1.059	 -9.506	 -0.003	  0.004	  0.005	 29.500	 98.740	  0.584
93419	  0.006	  0.151	  0.633	  1.884	 -1.064	 -9.507	 -0.005	  0.003	  0.003	 29.500	 98.740	  0.584
93469	  0.007	  0.152	  0.638	  1.858	 -1.085	 -9.476	 -0.004	  0.003	  0.004	 29.500	 98.740	  0.584
93519	  0.006	  0.159	  0.637	  1.885	 -1.063	 -9.506	 -0.005	  0.002	  0.003	 29.500	 98.740	  0.584
93569	  0.007	  0.154	  0.635	  1.902	 -1.059	 -9.450	 -0.004	  0.004	  0.004	 29.500	 98.729	  1.577
93619	  0.007	  0.153	  0.635	  1.884	 -1.086	 -9.488	 -0.005	  0.003	  0.003	 29.500	 98.740	  0.584
93669	  0.007	  0.152	  0.630	  1.870	 -1.079	 -9.458	 -0.005	  0.004	  0.003	 29.500	 98.744	  0.223
93719	  0.006	  0.149	  0.636	  1.865	 -1.066	 -9.488	 -0.005	  0.003	  0.004	 29.500	 98.744	  0.223
93769	  0.007	  0.151	  0.630	  1.850	 -1.084	 -9.468	 -0.004	  0.002	  0.004	 29.500	 98.740	  0.584
93819	  0.006	  0.149	  0.637	  1.879	 -1.064	 -9.460	 -0.005	  0.004	  0.003	 29.500	 98.740	  0.584
93869	  0.005	  0.151	  0.637	  1.859	 -1.059	 -9.488	 -0.004	  0.003	  0.005	 29.500	 98.740	  0.584
93919	  0.006	  0.159	  0.639	  1.876	 -1.067	 -9.511	 -0.004	  0.001	  0.004	 29.500	 98.744	  0.223
93969	  0.006	  0.150	  0.635	  1.856	 -1.054	 -9.475	 -0.003	  0.003	  0.003	 29.500	 98.744	  0.223
94019	  0.006	  0.151	  0.635	  1.867	 -1.086	 -9.488	 -0.005	  0.003	  0.004	 29.500	 98.740	  0.584
94069	  0.007	  0.151	  0.638	  1.862	 -1.059	 -9.450	 -0.005	  0.004	  0.004	 29.500	 98.729	  1.577
94119	  0.007	  0.153	  0.636	  1.877	 -1.072	 -9.485	 -0.005	  0.003	  0.004	 29.500	 98.740	  0.584
94169	  0.006	  0.153	  0.637	  1.882	 -1.062	 -9.468	 -0.003	  0.003	  0.003	 29.500	 98.740	  0.584
94219	  0.005	  0.151	  0.635	  1.872	 -1.067	 -9.489	 -0.004	  0.002	  0.004	 29.500	 98.744	  0.223
94269	  0.006	  0.148	  0.635	  1.879	 -1.057	 -9.470	 -0.005	  0.001	  0.002	 29.500	 98.751	 -0.409
94319	  0.004	  0.155	  0.637	  1.883	 -1.085	 -9.462	 -0.004	  0.002	  0.004	 29.500	 98.744	  0.223
94369	  0.005	  0.148	  0.638	  1.875	 -1.049	 -9.501	 -0.005	  0.002	  0.002	 29.500	 98.740	  0.584
94419	  0.004	  0.153	  0.632	  1.859	 -1.075	 -9.495	 -0.005	  0.002	  0.003	 29.500	 98.733	  1.216
94469	  0.006	  0.148	  0.641	  1.863	 -1.091	 -9.501	 -0.005	  0.005	  0.004	 29.500	 98.740	  0.584
94519	  0.005	  0.157	  0.639	  1.892	 -1.067	 -9.475	 -0.004	  0.002	  0.004	 29.500	 98.744	  0.223
94569	  0.005	  0.151	  0.639	  1.858	 -1.066	 -9.478	 -0.006	  0.002	  0.004	 29.500	 98.744	  0.223
94619	  0.007	  0.151	  0.636	  1.838	 -1.066	 -9.490	 -0.005	  0.003	  0.003	 29.500	 98.744	  0.223
94669	  0.008	  0.148	  0.628	  1.888	 -1.084	 -9.484	 -0.004	  0.003	  0.003	 29.500	 98.740	  0.584
94719	  0.006	  0.160	  0.638	  1.862	 -1.055	 -9.448	 -0.004	  0.002	  0.004	 29.500	 98.740	  0.584
94769	  0.006	  0.153	  0.634	  1.861	 -1.061	 -9.477	 -0.004	  0.003	  0.004	 29.500	 98.733	  1.216
94820	  0.006	  0.154	  0.639	  1.892	 -1.058	 -9.503	 -0.004	  0.004	  0.005	 29.500	 98.744	  0.223
94869	  0.006	  0.147	  0.636	  1.886	 -1.079	 -9.521	 -0.005	  0.004	  0.004	 29.500	 98.744	  0.223
94920	  0.007	  0.156	  0.636	  1.853	 -1.065	 -9.497	 -0.004	  0.001	  0.004	 29.500	 98.744	  0.223
94969	  0.008	  0.154	  0.632	  1.854	 -1.078	 -9.505	 -0.005	  0.003	  0.004	 29.500	 98.744	  0.223
95019	  0.005	  0.152	  0.639	  1.878	 -1.072	 -9.489	 -0.004	  0.002	  0.004	 29.500	 98.744	  0.223
95069	  0.007	  0.152	  0.632	  1.888	 -1.074	 -9.445	 -0.005	  0.001	  0.004	 29.500	 98.744	  0.223
95119	  0.007	  0.148	  0.636	  1.864	 -1.061	 -9.482	 -0.005	  0.003	  0.004	 29.500	 98.744	  0.223
95169	  0.005	  0.154	  0.636	  1.872	 -1.088	 -9.477	 -0.004	  0.002	  0.002	 29.500	 98.733	  1.216
95219	  0.004	  0.151	  0.638	  1.879	 -1.057	 -9.451	 -0.004	  0.001	  0.004	 29.500	 98.755	 -0.771
95270	  0.005	  0.148	  0.634	  1.889	 -1.081	 -9.512	 -0.004	  0.003	  0.004	 29.500	 98.744	  0.223
95320	  0.009	  0.149	  0.629	  1.859	 -1.045	 -9.479	 -0.003	  0.001	  0.004	 29.500	 98.737	  0.855
95370	  0.006	  0.152	  0.634	  1.862	 -1.080	 -9.471	 -0.004	  0.003	  0.004	 29.500	 98.744	  0.223
95419	  0.005	  0.151	  0.638	  1.900	 -1.092	 -9.429	 -0.009	  0.006	  0.003	 29.500	 98.733	  1.216
95469	  0.006	  0.154	  0.638	  1.926	 -1.068	 -9.457	 -0.002	  0.002	  0.004	 29.500	 98.748	 -0.138
95519	  0.008	  0.152	  0.637	  1.869	 -1.099	 -9.506	 -0.009	  0.002	  0.003	 29.500	 98.744	  0.223
95569	  0.005	  0.159	  0.637	  1.892	 -1.089	 -9.486	  0.002	  0.001	  0.004	 29.500	 98.744	  0.223
95619	  0.006	  0.153	  0.635	  1.841	 -1.044	 -9.538	 -0.004	 -0.000	  0.003	 29.500	 98.733	  1.216
95669	  0.007	  0.157	  0.639	  1.866	 -1.039	 -9.510	 -0.001	  0.002	  0.004	 29.500	 98.744	  0.223
95719	  0.006	  0.153	  0.637	  1.905	 -1.035	 -9.433	 -0.001	 -0.002	  0.005	 29.500	 98.744	  0.223
95769	  0.009	  0.154	  0.638	  1.853	 -1.132	 -9.500	 -0.002	  0.002	  0.004	 29.500	 98.748	 -0.138
95819	  0.007	  0.156	  0.638	  1.852	 -1.169	 -9.521	 -0.004	  0.002	  0.004	 29.500	 98.744	  0.223
95869	  0.006	  0.156	  0.639	  1.847	 -1.053	 -9.495	 -0.001	 -0.005	  0.006	 29.500	 98.748	 -0.138
95919	  0.006	  0.151	  0.637	  1.845	 -1.065	 -9.499	 -0.002	  0.003	  0.005	 29.500	 98.744	  0.223
95969	  0.006	  0.150	  0.636	  1.897	 -0.997	 -9.491	 -0.001	 -0.000	  0.004	 29.500	 98.744	  0.223
96019	  0.006	  0.160	  0.639	  1.863	 -1.043	 -9.499	  0.000	  0.001	  0.006	 29.500	 98.733	  1.216
96069	  0.007	  0.151	  0.635	  1.863	 -1.091	 -9.495	 -0.002	 -0.000	  0.004	 29.500	 98.748	 -0.138
96119	  0.006	  0.150	  0.631	  1.862	 -1.080	 -9.482	 -0.001	 -0.001	  0.005	 29.500	 98.748	 -0.138
96169	  0.005	  0.155	  0.636	  1.855	 -1.024	 -9.488	  0.003	  0.006	  0.006	 29.500	 98.744	  0.223
96219	  0.006	  0.162	  0.637	  1.942	 -1.104	 -9.416	 -0.001	 -0.004	  0.005	 29.500	 98.748	 -0.138
96269	  0.005	  0.152	  0.637	  1.834	 -1.091	 -9.514	 -0.006	  0.001	  0.004	 29.500	 98.759	 -1.132
96319	  0.008	  0.150	  0.636	  1.812	 -1.169	 -9.533	 -0.003	  0.006	  0.003	 29.500	 98.737	  0.855
96369	  0.005	  0.150	  0.634	  1.834	 -1.132	 -9.521	 -0.005	  0.003	  0.003	 29.500	 98.744	  0.223
96419	  0.007	  0.150	  0.639	  1.857	 -1.044	 -9.474	 -0.001	  0.001	  0.005	 29.500	 98.744	  0.223
96469	  0.007	  0.152	  0.632	  1.852	 -1.108	 -9.514	 -0.001	 -0.003	  0.005	 29.500	 98.748	 -0.138
96519	  0.007	  0.152	  0.635	  1.713	 -1.059	 -9.627	 -0.003	  0.014	  0.002	 29.500	 98.759	 -1.132
96569	  0.006	  0.150	  0.632	  1.917	 -1.272	 -9.402	 -0.002	  0.003	  0.003	 29.500	 98.737	  0.855
96619	  0.007	  0.150	  0.636	  1.878	 -1.008	 -9.479	 -0.007	 -0.000	  0.003	 29.500	 98.744	  0.223
96669	  0.006	  0.151	  0.639	  1.871	 -1.030	 -9.472	 -0.003	  0.004	  0.003	 29.500	 98.748	 -0.138
96719	  0.005	  0.151	  0.630	  1.888	 -1.107	 -9.453	 -0.007	  0.004	  0.004	 29.500	 98.748	 -0.138
96769	  0.005	  0.153	  0.638	  1.857	 -1.055	 -9.469	 -0.006	  0.003	  0.004	 29.500	 98.733	  1.216
96819	  0.005	  0.154	  0.636	  1.869	 -1.087	 -9.492	 -0.004	  0.002	  0.004	 29.500	 98.759	 -1.132
96869	  0.007	  0.150	  0.635	  1.886	 -1.065	 -9.513	 -0.005	  0.002	  0.002	 29.500	 98.748	 -0.138
96919	  0.007	  0.154	  0.636	  1.877	 -1.041	 -9.483	 -0.004	  0.002	  0.004	 29.500	 98.744	  0.223
96969	  0.006	  0.152	  0.638	  1.887	 -1.103	 -9.496	 -0.005	  0.002	  0.003	 29.500	 98.748	 -0.138
97019	  0.005	  0.149	  0.632	  1.859	 -1.076	 -9.510	 -0.004	  0.003	  0.003	 29.500	 98.737	  0.855
97069	  0.005	  0.148	  0.639	  1.865	 -1.068	 -9.490	 -0.004	  0.002	  0.004	 29.500	 98.748	 -0.138
97119	  0.007	  0.153	  0.636	  1.883	 -1.075	 -9.499	 -0.004	  0.002	  0.003	 29.500	 98.737	  0.855
97169	  0.005	  0.152	  0.638	  1.889	 -1.080	 -9.470	 -0.003	  0.003	  0.004	 29.500	 98.737	  0.855
97219	  0.005	  0.148	  0.636	  1.840	 -1.063	 -9.490	 -0.006	  0.002	  0.004	 29.500	 98.737	  0.855
97269	  0.005	  0.160	  0.636	  1.872	 -1.098	 -9.508	 -0.003	  0.004	  0.004	 29.500	 98.748	 -0.138
97319	  0.005	  0.154	  0.640	  1.874	 -1.072	 -9.481	 -0.005	  0.002	  0.005	 29.500	 98.737	  0.855
97369	  0.007	  0.151	  0.638	  1.861	 -1.074	 -9.465	 -0.004	  0.004	  0.005	 29.500	 98.737	  0.855
97419	  0.005	  0.152	  0.637	  1.887	 -1.054	 -9.518	 -0.005	  0.001	  0.004	 29.500	 98.737	  0.855
97469	  0.007	  0.153	  0.632	  1.866	 -1.088	 -9.457	 -0.004	  0.002	  0.004	 29.500	 98.737	  0.855
97519	  0.007	  0.159	  0.634	  1.855	 -1.062	 -9.449	 -0.004	  0.003	  0.004	 29.500	 98.737	  0.855
97569	  0.005	  0.152	  0.634	  1.871	 -1.065	 -9.516	 -0.004	  0.002	  0.002	 29.500	 98.748	 -0.138
97619	  0.005	  0.153	  0.639	  1.864	 -1.075	 -9.478	 -0.005	  0.002	  0.004	 29.500	 98.748	 -0.138
97669	  0.006	  0.152	  0.635	  1.879	 -1.063	 -9.495	 -0.004	  0.003	  0.004	 29.500	 98.752	 -0.500
97719	  0.007	  0.150	  0.637	  1.869	 -1.083	 -9.491	 -0.005	  0.003	  0.004	 29.500	 98.741	  0.494
97769	  0.006	  0.151	  0.638	  1.863	 -1.060	 -9.466	 -0.004	  0.004	  0.004	 29.500	 98.737	  0.855
97819	  0.006	  0.153	  0.639	  1.869	 -1.065	 -9.486	 -0.005	  0.003	  0.003	 29.500	 98.741	  0.494
97869	  0.005	  0.151	  0.635	  1.850	 -1.057	 -9.479	 -0.004	  0.002	  0.004	 29.500	 98.748	 -0.138
97919	  0.007	  0.154	  0.637	  1.879	 -1.063	 -9.474	 -0.003	  0.004	  0.004	 29.500	 98.737	  0.855
97969	  0.006	  0.151	  0.634	  1.885	 -1.047	 -9.474	 -0.005	  0.003	  0.003	 29.500	 98.752	 -0.500
98019	  0.004	  0.151	  0.635	  1.887	 -1.098	 -9.488	 -0.004	  0.001	  0.004	 29.500	 98.741	  0.494
98069	  0.006	  0.151	  0.639	  1.875	 -1.056	 -9.505	 -0.004	  0.004	  0.004	 29.500	 98.748	 -0.138
98119	  0.005	  0.158	  0.637	  1.842	 -1.085	 -9.484	 -0.004	  0.002	  0.004	 29.500	 98.741	  0.494
98169	  0.006	  0.151	  0.636	  1.868	 -1.073	 -9.437	 -0.004	  0.003	  0.004	 29.500	 98.737	  0.855
98219	  0.003	  0.154	  0.633	  1.873	 -1.080	 -9.480	 -0.003	  0.002	  0.004	 29.500	 98.752	 -0.500
98269	  0.006	  0.151	  0.639	  1.896	 -1.028	 -9.488	 -0.004	  0.002	  0.004	 29.500	 98.741	  0.494
98319	  0.006	  0.149	  0.635	  1.866	 -1.078	 -9.497	 -0.004	  0.003	  0.003	 29.500	 98.741	  0.494
98369	  0.007	  0.149	  0.631	  1.884	 -1.060	 -9.467	 -0.004	  0.001	  0.004	 29.500	 98.741	  0.494
98419	  0.005	  0.149	  0.634	  1.865	 -1.073	 -9.489	 -0.004	  0.002	  0.004	 29.500	 98.741	  0.494
98469	  0.007	  0.151	  0.638	  1.899	 -1.086	 -9.460	 -0.006	  0.002	  0.002	 29.500	 98.741	  0.494
98519	  0.005	  0.151	  0.634	  1.862	 -1.090	 -9.477	 -0.005	  0.003	  0.004	 29.500	 98.741	  0.494
98569	  0.004	  0.153	  0.636	  1.860	 -1.042	 -9.485	 -0.004	  0.002	  0.003	 29.500	 98.741	  0.494
98619	  0.004	  0.153	  0.636	  1.854	 -1.071	 -9.479	 -0.005	  0.003	  0.003	 29.500	 98.730	  1.487
98669	  0.011	  0.151	  0.634	  1.882	 -1.052	 -9.474	 -0.005	  0.003	  0.003	 29.500	 98.741	  0.494
98719	  0.008	  0.149	  0.637	  1.883	 -1.074	 -9.498	 -0.005	  0.004	  0.005	 29.500	 98.737	  0.855
98769	  0.009	  0.155	  0.632	  1.887	 -1.081	 -9.485	 -0.004	  0.002	  0.003	 29.500	 98.730	  1.487
98819	  0.007	  0.150	  0.637	  1.855	 -1.075	 -9.471	 -0.004	  0.003	  0.003	 29.500	 98.741	  0.494
98869	  0.005	  0.160	  0.638	  1.880	 -1.073	 -9.488	 -0.006	  0.002	  0.004	 29.500	 98.741	  0.494
98919	  0.006	  0.147	  0.637	  1.869	 -1.075	 -9.480	 -0.004	  0.003	  0.003	 29.500	 98.737	  0.855
98969	  0.006	  0.151	  0.634	  1.863	 -1.098	 -9.456	 -0.004	  0.002	  0.004	 29.500	 98.741	  0.494
99019	  0.007	  0.148	  0.635	  1.875	 -1.065	 -9.483	 -0.004	  0.003	  0.004	 29.500	 98.730	  1.487
99069	  0.008	  0.160	  0.638	  1.914	 -1.077	 -9.479	 -0.003	  0.001	  0.004	 29.500	 98.741	  0.494
99119	  0.009	  0.146	  0.637	  1.878	 -1.046	 -9.509	 -0.004	  0.002	  0.003	 29.500	 98.741	  0.494
99169	  0.004	  0.149	  0.636	  1.886	 -1.078	 -9.452	 -0.004	  0.003	  0.003	 29.500	 98.730	  1.487
99219	  0.005	  0.151	  0.634	  1.888	 -1.073	 -9.481	 -0.004	  0.003	  0.004	 29.500	 98.737	  0.855
99269	  0.006	  0.148	  0.638	  1.897	 -1.087	 -9.459	 -0.003	  0.002	  0.002	 29.500	 98.741	  0.494
99319	  0.006	  0.160	  0.638	  1.868	 -1.074	 -9.475	 -0.004	  0.003	  0.004	 29.500	 98.741	  0.494
99369	  0.006	  0.150	  0.639	  1.865	 -1.058	 -9.510	 -0.004	  0.003	  0.004	 29.500	 98.741	  0.494
99419	  0.008	  0.157	  0.637	  1.902	 -1.055	 -9.478	 -0.005	  0.003	  0.003	 29.500	 98.730	  1.487
99469	  0.006	  0.152	  0.635	  1.844	 -1.103	 -9.494	 -0.004	  0.003	  0.004	 29.500	 98.741	  0.494
99519	  0.006	  0.154	  0.638	  1.875	 -1.084	 -9.527	 -0.005	  0.003	  0.003	 29.500	 98.741	  0.494
99569	  0.008	  0.153	  0.635	  1.862	 -1.074	 -9.478	 -0.004	  0.002	  0.004	 29.500	 98.741	  0.494
99619	  0.005	  0.150	  0.632	  1.905	 -1.046	 -9.443	 -0.003	  0.002	  0.003	 29.500	 98.741	  0.494
99669	  0.008	  0.149	  0.639	  1.885	 -1.068	 -9.472	 -0.004	  0.002	  0.003	 29.500	 98.741	  0.494
99719	  0.007	  0.151	  0.637	  1.882	 -1.087	 -9.504	 -0.005	  0.003	  0.004	 29.500	 98.741	  0.494
99769	  0.007	  0.149	  0.636	  1.878	 -1.070	 -9.474	 -0.005	  0.002	  0.004	 29.500	 98.745	  0.132
99819	  0.007	  0.148	  0.633	  1.897	 -1.057	 -9.496	 -0.006	  0.003	  0.003	 29.500	 98.741	  0.494
99869	  0.006	  0.149	  0.637	  1.891	 -1.037	 -9.482	 -0.003	  0.004	  0.003	 29.500	 98.741	  0.494
99919	  0.007	  0.150	  0.638	  1.878	 -1.068	 -9.456	 -0.004	  0.001	  0.002	 29.500	 98.741	  0.494
99969	  0.005	  0.150	  0.638	  1.868	 -1.061	 -9.486	 -0.005	  0.002	  0.004	 29.500	 98.741	  0.494
100019	  0.006	  0.154	  0.635	  1.882	 -1.085	 -9.479	 -0.005	  0.003	  0.005	 29.500	 98.734	  1.126
100069	  0.005	  0.152	  0.637	  1.872	 -1.071	 -9.489	 -0.004	  0.002	  0.004	 29.500	 98.730	  1.487
100119	  0.006	  0.152	  0.638	  1.870	 -1.109	 -9.507	 -0.004	  0.003	  0.004	 29.500	 98.730	  1.487
100169	  0.006	  0.153	  0.635	  1.880	 -1.049	 -9.481	 -0.004	  0.002	  0.003	 29.500	 98.723	  2.119
100219	  0.007	  0.153	  0.637	  1.864	 -1.108	 -9.480	 -0.005	  0.001	  0.003	 29.500	 98.741	  0.494
100269	  0.005	  0.158	  0.637	  1.878	 -1.046	 -9.476	 -0.005	  0.004	  0.004	 29.500	 98.745	  0.132
100319	  0.005	  0.150	  0.640	  1.873	 -1.063	 -9.473	 -0.005	  0.002	  0.005	 29.500	 98.734	  1.126
100368	  0.005	  0.155	  0.637	  1.877	 -1.086	 -9.491	 -0.004	  0.003	  0.004	 29.500	 98.730	  1.487
100418	  0.005	  0.151	  0.636	  1.882	 -1.075	 -9.476	 -0.003	  0.002	  0.004	 29.500	 98.734	  1.126
100468	  0.008	  0.154	  0.638	  1.896	 -1.059	 -9.488	 -0.004	  0.002	  0.002	 29.500	 98.741	  0.494
100518	  0.006	  0.150	  0.637	  1.857	 -1.073	 -9.470	 -0.005	  0.002	  0.004	 29.500	 98.730	  1.487
100568	  0.006	  0.150	  0.639	  1.873	 -1.085	 -9.485	 -0.004	  0.003	  0.004	 29.500	 98.734	  1.126
100618	  0.007	  0.153	  0.636	  1.871	 -1.094	 -9.476	 -0.005	  0.002	  0.004	 29.500	 98.730	  1.487
100669	  0.008	  0.151	  0.636	  1.867	 -1.075	 -9.484	 -0.005	  0.001	  0.004	 29.500	 98.745	  0.132
100718	  0.007	  0.159	  0.636	  1.860	 -1.073	 -9.529	 -0.004	  0.002	  0.004	 29.500	 98.734	  1.126
100769	  0.006	  0.162	  0.636	  1.873	 -1.065	 -9.451	 -0.004	  0.003	  0.002	 29.500	 98.741	  0.494
100818	  0.006	  0.149	  0.635	  1.863	 -1.042	 -9.460	 -0.004	  0.002	  0.004	 29.500	 98.734	  1.126
100868	  0.004	  0.159	  0.639	  1.877	 -1.064	 -9.519	 -0.005	  0.002	  0.003	 29.500	 98.745	  0.132
100919	  0.005	  0.152	  0.635	  1.847	 -1.067	 -9.511	 -0.004	  0.002	  0.004	 29.500	 98.734	  1.126
100969	  0.008	  0.153	  0.639	  1.862	 -1.068	 -9.489	 -0.006	  0.002	  0.004	 29.500	 98.734	  1.126
101018	  0.004	  0.148	  0.632	  1.854	 -1.068	 -9.471	 -0.004	  0.003	  0.004	 29.500	 98.734	  1.126
101069	  0.003	  0.144	  0.639	  1.882	 -1.087	 -9.479	 -0.005	  0.001	  0.003	 29.500	 98.745	  0.132
101119	  0.005	  0.155	  0.637	  1.878	 -1.054	 -9.484	 -0.003	  0.001	  0.005	 29.500	 98.734	  1.126
101169	  0.007	  0.150	  0.632	  1.878	 -1.103	 -9.447	 -0.005	  0.003	  0.003	 29.500	 98.745	  0.132
101219	  0.006	  0.152	  0.639	  1.889	 -1.041	 -9.524	 -0.004	  0.003	  0.003	 29.500	 98.749	 -0.229
101269	  0.005	  0.149	  0.637	  1.874	 -1.093	 -9.469	 -0.004	  0.002	  0.003	 29.500	 98.734	  1.126
101319	  0.005	  0.155	  0.639	  1.880	 -1.064	 -9.471	 -0.003	  0.002	  0.005	 29.500	 98.745	  0.132
101368	  0.005	  0.155	  0.636	  1.865	 -1.077	 -9.482	 -0.006	  0.001	  0.005	 29.500	 98.734	  1.126
101419	  0.007	  0.154	  0.632	  1.874	 -1.060	 -9.525	 -0.004	  0.003	  0.003	 29.500	 98.734	  1.126
101469	  0.005	  0.158	  0.638	  1.878	 -1.083	 -9.501	 -0.004	  0.003	  0.004	 29.500	 98.734	  1.126
101519	  0.005	  0.151	  0.638	  1.895	 -1.068	 -9.507	 -0.004	  0.002	  0.004	 29.500	 98.734	  1.126
101569	  0.007	  0.154	  0.635	  1.856	 -1.080	 -9.485	 -0.004	  0.002	  0.004	 29.500	 98.734	  1.126
101619	  0.010	  0.160	  0.642	  1.888	 -1.065	 -9.445	 -0.005	  0.003	  0.003	 29.500	 98.734	  1.126
101669	  0.005	  0.153	  0.637	  1.872	 -1.068	 -9.472	 -0.005	  0.002	  0.004	 29.500	 98.738	  0.765
101719	  0.004	  0.148	  0.637	  1.881	 -1.072	 -9.475	 -0.005	  0.003	  0.003	 29.500	 98.734	  1.126
101769	  0.005	  0.155	  0.637	  1.858	 -1.050	 -9.482	 -0.005	  0.002	  0.003	 29.500	 98.734	  1.126
101819	  0.010	  0.150	  0.636	  1.903	 -1.075	 -9.502	 -0.006	  0.002	  0.004	 29.500	 98.734	  1.126
101869	  0.008	  0.151	  0.636	  1.884	 -1.077	 -9.485	 -0.003	  0.001	  0.004	 29.500	 98.745	  0.132
101919	  0.005	  0.152	  0.634	  1.891	 -1.092	 -9.474	 -0.005	  0.003	  0.003	 29.500	 98.738	  0.765
101969	  0.005	  0.159	  0.640	  1.855	 -1.055	 -9.496	 -0.004	  0.001	  0.004	 29.500	 98.745	  0.132
102019	  0.004	  0.157	  0.635	  1.898	 -1.082	 -9.456	 -0.004	  0.003	  0.003	 29.500	 98.723	  2.119
102069	  0.008	  0.153	  0.634	  1.875	 -1.066	 -9.505	 -0.003	  0.003	  0.004	 29.500	 98.734	  1.126
102119	  0.006	  0.151	  0.636	  1.868	 -1.093	 -9.486	 -0.005	  0.002	  0.004	 29.500	 98.749	 -0.229
102169	  0.006	  0.151	  0.639	  1.867	 -1.070	 -9.494	 -0.004	  0.002	  0.004	 29.500	 98.738	  0.765
102219	  0.006	  0.154	  0.636	  1.895	 -1.067	 -9.480	 -0.004	  0.003	  0.005	 29.500	 98.734	  1.126
102269	  0.006	  0.148	  0.641	  1.885	 -1.033	 -9.500	 -0.006	  0.002	  0.005	 29.500	 98.745	  0.132
102319	  0.007	  0.150	  0.635	  1.879	 -1.077	 -9.436	 -0.005	  0.003	  0.003	 29.500	 98.738	  0.765
102369	  0.007	  0.149	  0.632	  1.887	 -1.074	 -9.488	 -0.006	  0.002	  0.003	 29.500	 98.738	  0.765
102419	  0.006	  0.151	  0.630	  1.870	 -1.064	 -9.462	 -0.004	  0.004	  0.004	 29.500	 98.727	  1.758
102469	  0.007	  0.150	  0.632	  1.857	 -1.060	 -9.472	 -0.004	  0.002	  0.003	 29.500	 98.749	 -0.229
102519	  0.007	  0.152	  0.642	  1.875	 -1.069	 -9.493	 -0.004	  0.002	  0.005	 29.500	 98.727	  1.758
102569	  0.005	  0.153	  0.636	  1.876	 -1.070	 -9.496	 -0.005	  0.003	  0.003	 29.500	 98.738	  0.765
102619	  0.009	  0.152	  0.631	  1.869	 -1.051	 -9.491	 -0.003	  0.002	  0.004	 29.500	 98.738	  0.765
102669	  0.006	  0.160	  0.638	  1.886	 -1.066	 -9.488	 -0.005	  0.003	  0.004	 29.500	 98.738	  0.765
102719	  0.006	  0.156	  0.636	  1.867	 -1.083	 -9.449	 -0.004	  0.003	  0.004	 29.500	 98.723	  2.119
102769	  0.006	  0.152	  0.630	  1.871	 -1.063	 -9.490	 -0.005	  0.003	  0.005	 29.500	 98.738	  0.765
102819	  0.006	  0.152	  0.637	  1.860	 -1.069	 -9.473	 -0.005	  0.003	  0.003	 29.500	 98.738	  0.765
102869	  0.003	  0.152	  0.636	  1.882	 -1.096	 -9.488	 -0.005	  0.003	  0.003	 29.500	 98.738	  0.765
102919	  0.007	  0.153	  0.638	  1.858	 -1.089	 -9.465	 -0.003	  0.003	  0.004	 29.500	 98.727	  1.758
102969	  0.004	  0.159	  0.639	  1.878	 -1.064	 -9.490	 -0.005	  0.002	  0.003	 29.500	 98.734	  1.126
103019	  0.008	  0.150	  0.636	  1.869	 -1.064	 -9.504	 -0.005	  0.002	  0.005	 29.500	 98.734	  1.126
103069	  0.004	  0.152	  0.641	  1.894	 -1.108	 -9.506	 -0.004	  0.002	  0.003	 29.500	 98.738	  0.765
103119	  0.007	  0.150	  0.634	  1.850	 -1.049	 -9.481	 -0.004	  0.002	  0.002	 29.500	 98.738	  0.765
103169	  0.007	  0.157	  0.639	  1.881	 -1.083	 -9.503	 -0.005	  0.003	  0.004	 29.500	 98.723	  2.119
103219	  0.005	  0.152	  0.632	  1.891	 -1.076	 -9.484	 -0.005	  0.003	  0.004	 29.500	 98.738	  0.765
103269	  0.006	  0.150	  0.635	  1.881	 -1.079	 -9.490	 -0.004	  0.003	  0.004	 29.500	 98.727	  1.758
103319	  0.005	  0.155	  0.635	  1.873	 -1.059	 -9.501	 -0.005	  0.003	  0.004	 29.500	 98.734	  1.126
103368	  0.009	  0.153	  0.640	  1.885	 -1.087	 -9.476	 -0.003	  0.002	  0.003	 29.500	 98.738	  0.765
103418	  0.005	  0.154	  0.638	  1.860	 -1.051	 -9.510	 -0.004	  0.003	  0.005	 29.500	 98.738	  0.765
103468	  0.007	  0.152	  0.639	  1.879	 -1.073	 -9.446	 -0.004	  0.002	  0.004	 29.500	 98.727	  1.758
103518	  0.006	  0.155	  0.638	  1.867	 -1.066	 -9.506	 -0.005	  0.003	  0.003	 29.500	 98.738	  0.765
103568	  0.005	  0.150	  0.637	  1.866	 -1.082	 -9.501	 -0.004	  0.003	  0.005	 29.600	 98.742	  0.404
103618	  0.003	  0.150	  0.638	  1.862	 -1.061	 -9.485	 -0.005	  0.004	  0.004	 29.500	 98.749	 -0.229
103668	  0.006	  0.150	  0.639	  1.860	 -1.047	 -9.498	 -0.004	  0.002	  0.004	 29.500	 98.738	  0.765
103719	  0.007	  0.150	  0.630	  1.911	 -1.062	 -9.506	 -0.004	  0.004	  0.004	 29.600	 98.738	  0.765
103768	  0.005	  0.147	  0.634	  1.866	 -1.072	 -9.485	 -0.003	  0.002	  0.004	 29.500	 98.738	  0.765
103818	  0.006	  0.155	  0.638	  1.859	 -1.061	 -9.479	 -0.006	  0.003	  0.003	 29.500	 98.738	  0.765
103868	  0.006	  0.151	  0.636	  1.884	 -1.062	 -9.494	 -0.004	  0.002	  0.004	 29.500	 98.738	  0.765
103918	  0.007	  0.150	  0.639	  1.873	 -1.083	 -9.500	 -0.005	  0.003	  0.004	 29.600	 98.727	  1.758
103968	  0.005	  0.152	  0.637	  1.888	 -1.067	 -9.475	 -0.004	  0.002	  0.004	 29.600	 98.742	  0.404
104018	  0.005	  0.153	  0.636	  1.887	 -1.092	 -9.452	 -0.003	  0.002	  0.003	 29.600	 98.742	  0.404
104068	  0.007	  0.153	  0.632	  1.859	 -1.059	 -9.476	 -0.005	  0.002	  0.003	 29.500	 98.738	  0.765
104118	  0.006	  0.148	  0.639	  1.877	 -1.079	 -9.506	 -0.004	  0.003	  0.004	 29.500	 98.738	  0.765
104168	  0.004	  0.150	  0.637	  1.860	 -1.058	 -9.471	 -0.004	  0.004	  0.003	 29.500	 98.738	  0.765
104218	  0.005	  0.151	  0.637	  1.890	 -1.091	 -9.513	 -0.005	  0.002	  0.004	 29.600	 98.738	  0.765
104268	  0.005	  0.149	  0.636	  1.858	 -1.050	 -9.478	 -0.005	  0.002	  0.004	 29.500	 98.738	  0.765
104318	  0.005	  0.149	  0.641	  1.921	 -1.030	 -9.440	 -0.003	  0.001	  0.004	 29.600	 98.742	  0.404
104368	  0.004	  0.151	  0.636	  1.854	 -0.951	 -9.490	 -0.004	  0.005	  0.003	 29.600	 98.731	  1.396
104418	  0.007	  0.150	  0.636	  2.132	 -1.343	 -9.309	 -0.048	  0.030	 -0.020	 29.600	 98.754	 -0.680
104468	  0.005	  0.153	  0.631	  1.911	 -0.690	 -9.392	 -0.027	  0.009	 -0.002	 29.600	 98.754	 -0.680
104518	  0.006	  0.161	  0.638	  1.764	 -1.151	 -9.605	  0.005	 -0.002	  0.010	 29.600	 98.738	  0.765
104568	  0.006	  0.151	  0.638	  1.872	 -1.071	 -9.496	 -0.046	  0.043	  0.016	 29.500	 98.727	  1.758
104618	  0.004	  0.157	  0.640	  1.676	 -0.244	 -9.643	 -0.087	  0.048	  0.243	 29.600	 98.742	  0.404
104668	  0.008	  0.148	  0.635	  2.048	 -1.202	 -9.486	 -0.009	 -0.005	  0.238	 29.600	 98.731	  1.396
104718	  0.009	  0.147	  0.632	  1.851	 -1.515	 -9.652	 -0.010	  0.002	  0.084	 29.600	 98.727	  1.758
104768	  0.009	  0.145	  0.638	  1.899	 -0.983	 -9.444	 -0.016	  0.013	  0.115	 29.600	 98.716	  2.751
104818	  0.007	  0.142	  0.636	  1.758	 -1.456	 -9.682	 -0.007	  0.009	 -0.000	 29.600	 98.720	  2.390
104868	  0.010	  0.144	  0.644	  2.009	 -0.808	 -9.392	  0.006	 -0.021	  0.009	 29.600	 98.709	  3.384
104918	  0.008	  0.142	  0.638	  1.851	 -1.168	 -9.518	 -0.023	  0.025	 -0.004	 29.600	 98.720	  2.390
104968	  0.009	  0.145	  0.641	  1.835	 -1.099	 -9.533	 -0.001	 -0.007	  0.006	 29.600	 98.697	  4.468
105018	  0.007	  0.150	  0.637	  1.843	 -1.079	 -9.535	 -0.006	  0.008	  0.002	 29.600	 98.709	  3.384
105068	  0.007	  0.146	  0.640	  1.782	 -1.230	 -9.561	 -0.004	 -0.002	  0.007	 29.600	 98.697	  4.468
105118	  0.010	  0.147	  0.641	  1.928	 -0.990	 -9.489	 -0.002	 -0.002	  0.005	 29.600	 98.697	  4.468
105168	  0.007	  0.146	  0.638	  1.856	 -1.192	 -9.523	 -0.005	 -0.001	  0.004	 29.600	 98.686	  5.462
105218	  0.007	  0.143	  0.641	  1.734	 -1.066	 -9.641	 -0.007	  0.008	  0.001	 29.600	 98.686	  5.462
105268	  0.004	  0.145	  0.638	  1.829	 -1.095	 -9.577	 -0.006	  0.008	  0.002	 29.600	 98.675	  6.455
105318	  0.007	  0.143	  0.633	  1.817	 -1.122	 -9.568	 -0.006	  0.004	  0.002	 29.600	 98.648	  8.895
105368	  0.007	  0.148	  0.638	  1.926	 -0.982	 -9.413	 -0.004	 -0.007	  0.006	 29.600	 98.641	  9.528
105418	  0.009	  0.146	  0.640	  1.830	 -1.092	 -9.564	 -0.003	  0.002	  0.004	 29.600	 98.619	 11.517
105468	  0.007	  0.144	  0.636	  1.907	 -0.996	 -9.435	  0.001	 -0.004	  0.003	 29.600	 98.585	 14.593
105518	  0.008	  0.142	  0.638	  2.031	 -0.893	 -9.360	 -0.012	  0.005	 -0.009	 29.600	 98.488	 23.373
105568	  0.008	  0.145	  0.644	  2.576	 -1.180	 -8.846	 -0.033	  0.002	  0.138	 29.600	 98.360	 34.975
105618	  0.010	  0.142	  0.639	  1.814	 -1.215	 -9.613	 -0.038	  0.031	  0.033	 29.600	 98.349	 35.973
105668	  0.007	  0.141	  0.636	  1.816	 -1.249	 -9.484	  0.016	 -0.012	  0.014	 29.600	 98.360	 34.975
105718	  0.010	  0.148	  0.637	  2.023	 -0.860	 -9.346	 -0.007	  0.006	  0.001	 29.600	 98.360	 34.975
105768	  0.010	  0.151	  0.643	  2.042	 -0.857	 -9.660	 -0.037	  0.020	 -0.004	 29.600	 98.349	 35.973
105818	  0.009	  0.143	  0.638	  1.950	 -1.050	 -9.456	 -0.004	  0.002	  0.002	 29.600	 98.375	 33.614
105868	  0.009	  0.142	  0.640	  1.798	 -0.942	 -9.559	  0.006	 -0.007	  0.007	 29.600	 98.394	 31.892
105918	  0.008	  0.145	  0.637	  1.870	 -1.056	 -9.524	 -0.008	  0.002	  0.002	 29.600	 98.394	 31.892
105968	  0.008	  0.150	  0.636	  1.665	 -0.919	 -9.645	 -0.004	 -0.005	  0.004	 29.600	 98.405	 30.894
106018	  0.008	  0.142	  0.640	  1.763	 -1.093	 -9.637	  0.003	  0.009	  0.005	 29.600	 98.405	 30.894
106068	  0.009	  0.142	  0.641	  1.912	 -1.040	 -9.451	  0.016	 -0.012	  0.011	 29.600	 98.416	 29.897
106118	  0.009	  0.142	  0.634	  1.882	 -1.015	 -9.492	 -0.004	  0.001	  0.004	 29.600	 98.394	 31.892
106168	  0.007	  0.144	  0.637	  1.759	 -1.003	 -9.591	 -0.003	  0.004	  0.031	 29.600	 98.562	 16.674
106218	  0.008	  0.152	  0.640	  1.930	 -0.818	 -9.412	 -0.000	 -0.009	  0.017	 29.600	 98.697	  4.468
106268	  0.009	  0.144	  0.641	  2.070	 -1.249	 -10.514	  0.018	  0.001	  0.004	 29.600	 98.731	  1.396
